,GameID,Half,PlayerID,FrameID,Time,GameClock,Speed,AccelImpulse,AccelLoad,AccelX,AccelY,AccelZ,Longitude,Latitude
68558,1,2,3,1,00:32:58,00:07:00,0.0,0.0,0.0019196279802662407,0.08125,1.0025,0.39875,55.46625067,24.99523083
68559,1,2,3,2,00:32:58,00:07:00,0.0,0.0,0.003769808149762315,-0.0075000000000000015,1.1325,0.24375,55.4662505,24.995231
68560,1,2,3,3,00:32:58,00:07:00,0.0,0.0,0.006869421302812851,0.22125,1.0275,0.2475,55.46625033,24.99523117
68561,1,2,3,4,00:32:58,00:07:00,0.0,0.0,0.0050162908319357855,0.5549999999999999,0.9125,0.2325,55.4662505,24.99523133
68562,1,2,3,5,00:32:58,00:07:00,0.416667,4.16667,0.0042837494386571695,0.5325,0.8925,0.2725,55.46625083,24.99523133
68563,1,2,3,6,00:32:58,00:07:00,0.35277806,0.6388894,0.0024268682793445523,0.53625,0.97375,0.07125,55.466251,24.99523133
68564,1,2,3,7,00:32:58,00:07:00,0.0,3.5277806000000003,0.00370723705325618,0.36125,0.955,-0.02625,55.46625083,24.99523117
68565,1,2,3,8,00:32:58,00:07:00,0.0,0.0,0.013551845539028013,0.1225,1.26,0.0825,55.46625083,24.99523133
68566,1,2,3,9,00:32:58,00:07:00,0.30833358,3.0833357999999995,0.005452317129400266,0.13,1.1875,0.1475,55.46625067,24.99523167
68567,1,2,3,10,00:32:59,00:07:01,0.30833358,3.0833357999999995,0.007537419841915124,-0.04625,1.11,0.19,55.46625067,24.99523167
68568,1,2,3,11,00:32:59,00:07:01,0.55277822,0.6666671999999999,0.0059095386999386,-0.00875,0.98125,0.28125,55.46624983,24.9952325
68569,1,2,3,12,00:32:59,00:07:01,0.51111152,0.416667,0.00527604720399783,0.03625,1.065,0.2275,55.46624933,24.99523267
68570,1,2,3,13,00:32:59,00:07:01,0.71666724,2.0555572,0.004574307536622604,0.015,0.8925,0.43625,55.46624867,24.995233
68571,1,2,3,14,00:32:59,00:07:01,0.86666736,1.5000011999999998,0.006485681353428136,0.04,1.02125,0.4325,55.466248,24.995233499999998
68572,1,2,3,15,00:32:59,00:07:01,0.8472228999999999,0.19444460000000002,0.005312944318059487,0.255,1.14875,0.355,55.46624717,24.99523383
68573,1,2,3,16,00:32:59,00:07:01,0.98055634,1.3333343999999998,0.0037955579277369946,0.27625,0.98875,0.38125,55.46624633,24.99523417
68574,1,2,3,17,00:32:59,00:07:01,0.97777856,0.027777800000000002,0.002929228770795797,0.185,0.87625,0.34,55.46624533,24.99523467
68575,1,2,3,18,00:32:59,00:07:01,0.96666744,0.11111120000000001,0.0026078089692044915,0.15125,0.96375,0.26125,55.466244499999995,24.99523517
68576,1,2,3,19,00:32:59,00:07:01,0.7500005999999999,2.1666684,0.002418422396824664,0.12125,0.99875,0.27875,55.466243999999996,24.99523567
68577,1,2,3,20,00:33:00,00:07:02,0.7500005999999999,2.1666684,0.002679402838808463,0.175,1.0075,0.3175,55.466243999999996,24.99523567
68578,1,2,3,21,00:33:00,00:07:02,0.75833394,1.0555564,0.007882026184411549,0.1375,1.2475,0.39625,55.466243000000006,24.9952365
68579,1,2,3,22,00:33:00,00:07:02,0.78611174,0.277778,0.009379147722461316,0.115,1.0275,0.56125,55.46624250000001,24.995237
68580,1,2,3,23,00:33:00,00:07:02,0.85277846,0.6666671999999999,0.004259964542810434,0.08,0.975,0.45625,55.466242,24.99523783
68581,1,2,3,24,00:33:00,00:07:02,0.96111188,1.0833342,0.002837722419849688,-0.02,0.91625,0.3175,55.46624167,24.99523867
68582,1,2,3,25,00:33:00,00:07:02,0.8194450999999999,1.4166678,0.0027609572634915928,-0.06375,0.885,0.31125,55.46624133,24.99523917
68583,1,2,3,26,00:33:00,00:07:02,0.78333396,0.3611114,0.003617916953389442,-0.0025000000000000005,0.85625,0.40875,55.46624083,24.99523983
68584,1,2,3,27,00:33:00,00:07:02,0.88333404,1.0000008,0.011686184032342005,0.03625,1.25375,0.43875,55.46624033,24.9952405
68585,1,2,3,28,00:33:00,00:07:02,0.9027785,0.19444460000000002,0.006393795419160707,0.07,1.17875,0.3875,55.46623983,24.995241
68586,1,2,3,29,00:33:00,00:07:02,0.88055626,0.22222240000000001,0.0029606272156819267,0.12875,1.01,0.31375,55.466239,24.995241500000002
68587,1,2,3,30,00:33:01,00:07:03,0.88055626,0.22222240000000001,0.002850688338495587,0.21625,0.89625,0.2925,55.466239,24.995241500000002
68588,1,2,3,31,00:33:01,00:07:03,0.83611178,0.16666679999999998,0.00227273148930896,0.21125,1.02375,0.2325,55.46623783,24.99524233
68589,1,2,3,32,00:33:01,00:07:03,0.8888896000000001,0.5277782,0.0024222110187731754,0.23125,1.06125,0.2375,55.4662375,24.995243
68590,1,2,3,33,00:33:01,00:07:03,0.8194450999999999,0.694445,0.009640928536752452,0.28125,1.1925,0.23,55.46623733,24.99524367
68591,1,2,3,34,00:33:01,00:07:03,0.9027785,0.833334,0.01977201620530076,6.955834562852315e-19,1.13375,0.43875,55.46623717,24.995244500000002
68592,1,2,3,35,00:33:01,00:07:03,1.03055638,1.2777788,0.005316851819909665,-0.18,0.87125,0.40125,55.46623733,24.9952455
68593,1,2,3,36,00:33:01,00:07:03,1.1250008999999999,0.9444452,0.0026984049988007827,-0.31625000000000003,0.84375,0.5,55.4662375,24.9952465
68594,1,2,3,37,00:33:01,00:07:03,1.03611194,0.8888896000000001,0.0024804513975085467,-0.2075,0.88875,0.48,55.4662375,24.9952475
68595,1,2,3,38,00:33:01,00:07:03,0.9583341000000001,0.7777784000000001,0.002612084622121721,-0.175,0.96375,0.435,55.46623783,24.99524817
68596,1,2,3,39,00:33:01,00:07:03,0.90555628,0.5277782,0.004121807179574397,0.01625,0.9925,0.325,55.46623833,24.995248999999998
68597,1,2,3,40,00:33:02,00:07:04,0.90555628,0.5277782,0.004688290098255629,0.10625,1.23875,0.3075,55.46623833,24.995248999999998
68598,1,2,3,41,00:33:02,00:07:04,0.92500074,1.3333343999999998,0.004574123002786358,0.03125,1.2575,0.32625,55.46623933,24.99525017
68599,1,2,3,42,00:33:02,00:07:04,1.00555636,0.8055561999999998,0.006119148726110395,0.14375,1.0425,0.25875,55.46624017,24.99525083
68600,1,2,3,43,00:33:02,00:07:04,0.89166738,1.1388898,0.0029820683753999057,0.13125,0.80625,0.28125,55.46624083,24.99525117
68601,1,2,3,44,00:33:02,00:07:04,0.78055618,1.111112,0.0030965109861699697,0.17,0.96375,0.3025,55.46624133,24.99525167
68602,1,2,3,45,00:33:02,00:07:04,0.79444508,0.138889,0.0017713548868151922,0.10125,0.9975,0.2475,55.466242,24.995252
68603,1,2,3,46,00:33:02,00:07:04,0.9027785,1.0833342,0.005021737135439956,0.075,1.1925,0.255,55.46624283,24.9952525
68604,1,2,3,47,00:33:02,00:07:04,0.96666744,0.6388894,0.006337822475666217,0.03375,1.245,0.33625,55.466243500000004,24.99525317
68605,1,2,3,48,00:33:02,00:07:04,0.972223,0.055555600000000004,0.004722217435365144,0.03,1.1625,0.34,55.46624417,24.99525383
68606,1,2,3,49,00:33:02,00:07:04,0.95277854,0.19444460000000002,0.003799869809951837,0.0425,0.7725,0.26125,55.46624483,24.99525433
68607,1,2,3,50,00:33:03,00:07:05,0.95277854,0.19444460000000002,0.003797547330921058,0.005,0.94125,0.305,55.46624483,24.99525433
68608,1,2,3,51,00:33:03,00:07:05,0.76111172,1.1388898,0.0032708636976646896,0.0625,1.0775,0.3125,55.46624617,24.995255
68609,1,2,3,52,00:33:03,00:07:05,0.81111176,0.5000004,0.0044563061274299895,0.05375,1.2,0.26875,55.46624683,24.9952555
68610,1,2,3,53,00:33:03,00:07:05,0.80833398,0.027777800000000002,0.005863998338345458,0.055,0.98375,0.27125,55.466247499999994,24.995256
68611,1,2,3,54,00:33:03,00:07:05,0.9166674000000001,1.0833342,0.006949614035260118,-0.0037499999999999994,1.195,0.37625,55.46624817,24.9952565
68612,1,2,3,55,00:33:03,00:07:05,0.79722286,1.1944454,0.003843068113415644,-0.0175,1.0225,0.325,55.46624867,24.995257000000002
68613,1,2,3,56,00:33:03,00:07:05,0.73888948,0.5833338,0.0035390933180097076,0.08875,0.805,0.34875,55.46624917,24.99525733
68614,1,2,3,57,00:33:03,00:07:05,0.77222284,0.33333359999999995,0.0028722508938895555,0.265,0.9675,0.30375,55.46624983,24.99525783
68615,1,2,3,58,00:33:03,00:07:05,0.71111168,0.6111116,0.004762694927490468,0.1225,1.00625,0.2725,55.46625033,24.99525817
68616,1,2,3,59,00:33:03,00:07:05,0.75833394,0.4722226,0.00512948490476559,-0.04875,1.1825,0.22625,55.46625083,24.99525883
68617,1,2,3,60,00:33:04,00:07:06,0.75833394,0.4722226,0.00878584184050433,-0.14375,1.17375,0.2675,55.46625083,24.99525883
68618,1,2,3,61,00:33:04,00:07:06,0.73333392,0.7222228,0.004260657018714139,0.01,1.265,0.285,55.4662515,24.995260000000002
68619,1,2,3,62,00:33:04,00:07:06,0.8472228999999999,1.1388898,0.005138092341293423,-0.00375,1.0625,0.1875,55.46625217,24.99526067
68620,1,2,3,63,00:33:04,00:07:06,0.84444512,0.027777800000000002,0.00312136594848526,-0.09875,0.93,0.23125,55.466253,24.99526067
68621,1,2,3,64,00:33:04,00:07:06,0.84166734,0.027777800000000002,0.0032250315299266557,-0.0625,0.99625,0.28,55.46625367,24.995261
68622,1,2,3,65,00:33:04,00:07:06,0.73055614,1.111112,0.006975264057198564,-0.02375,1.12375,0.29125,55.46625433,24.99526133
68623,1,2,3,66,00:33:04,00:07:06,0.78055618,0.5000004,0.008253501138183955,0.25625,1.06875,0.1825,55.466255000000004,24.995261499999998
68624,1,2,3,67,00:33:04,00:07:06,0.9166674000000001,1.3611122,0.006866243773567845,0.2075,1.19,0.3125,55.46625583,24.995261499999998
68625,1,2,3,68,00:33:04,00:07:06,0.88333404,0.33333359999999995,0.006710964371929566,0.17,0.9525,0.325,55.46625649999999,24.99526167
68626,1,2,3,69,00:33:04,00:07:06,0.60833382,2.7500022,0.004179644075839666,0.20875,0.935,0.30875,55.46625683,24.99526167
68627,1,2,3,70,00:33:05,00:07:07,0.60833382,2.7500022,0.0030445435025229822,0.2325,0.92875,0.4125,55.46625683,24.99526167
68628,1,2,3,71,00:33:05,00:07:07,0.53055598,0.277778,0.002812114513616235,0.28875,0.9875,0.38,55.46625783,24.99526183
68629,1,2,3,72,00:33:05,00:07:07,0.40555588,1.250001,0.0025422397451142172,0.2325,0.94,0.41875,55.466257999999996,24.995262
68630,1,2,3,73,00:33:05,00:07:07,0.41944478,0.138889,0.0019990872915651853,0.2175,0.9275,0.4225,55.46625833,24.99526217
68631,1,2,3,74,00:33:05,00:07:07,0.3611114,0.5833338,0.0023789251790592826,0.215,0.9625,0.3875,55.466258499999995,24.9952625
68632,1,2,3,75,00:33:05,00:07:07,0.34444472,0.16666679999999998,0.0031650367928770765,0.1975,1.01,0.33,55.46625883,24.99526267
68633,1,2,3,76,00:33:05,00:07:07,0.57777824,2.3333352,0.003704725892943794,0.1925,0.9775,0.28375,55.46625917,24.99526317
68634,1,2,3,77,00:33:05,00:07:07,0.57222268,0.055555600000000004,0.00323834835190282,0.13125,1.105,0.2675,55.4662595,24.99526367
68635,1,2,3,78,00:33:05,00:07:07,0.55277822,0.19444460000000002,0.0050169771559599495,0.055,1.2575,0.305,55.46625983,24.99526417
68636,1,2,3,79,00:33:05,00:07:07,0.50833374,0.44444480000000003,0.005973009953367317,-0.03875,1.0625,0.3075,55.46626,24.995264499999998
68637,1,2,3,80,00:33:06,00:07:08,0.50833374,0.44444480000000003,0.002979289095326501,-0.17625,0.99125,0.2875,55.46626,24.995264499999998
68638,1,2,3,81,00:33:06,00:07:08,0.35000028,0.0,0.00240727782690898,-0.0675,1.035,0.27625,55.46626033,24.995265
68639,1,2,3,82,00:33:06,00:07:08,0.3194447,0.3055558,0.0025941969212429088,-0.045,1.0075,0.2875,55.4662605,24.99526517
68640,1,2,3,83,00:33:06,00:07:08,0.38055586,0.6111116,0.004089812313871935,-0.04,1.105,0.305,55.46626083,24.99526533
68641,1,2,3,84,00:33:06,00:07:08,0.37777808,0.027777800000000002,0.004395906823937449,0.03875,1.07625,0.22,55.46626117,24.99526533
68642,1,2,3,85,00:33:06,00:07:08,0.42500034,0.4722226,0.0033256339366258664,-0.015,0.95875,0.2875,55.46626167,24.99526533
68643,1,2,3,86,00:33:06,00:07:08,0.44444480000000003,0.19444460000000002,0.00269481668682855,0.0575,1.1075,0.28250000000000003,55.466262,24.99526533
68644,1,2,3,87,00:33:06,00:07:08,0.4027781,0.416667,0.002948794594434239,0.03625,1.08,0.23625,55.46626233,24.99526533
68645,1,2,3,88,00:33:06,00:07:08,0.42500034,0.22222240000000001,0.0018214884047069546,0.07375,1.07875,0.14875,55.46626267,24.99526517
68646,1,2,3,89,00:33:06,00:07:08,0.4027781,0.22222240000000001,0.002927064809262457,0.14125,1.12,0.16125,55.466263,24.995265
68647,1,2,3,90,00:33:07,00:07:09,0.4027781,0.22222240000000001,0.005383332478284524,0.15,1.07375,0.16,55.466263,24.995265
68648,1,2,3,91,00:33:07,00:07:09,0.0,0.0,0.005507429520982387,0.09625,1.06375,0.14125,55.466263500000004,24.99526517
68649,1,2,3,92,00:33:07,00:07:09,0.0,0.0,0.013128868838647363,-0.04375,1.055,0.12875,55.466263500000004,24.99526517
68650,1,2,3,93,00:33:07,00:07:09,0.0,0.0,0.010681083938853364,-0.015,1.15875,0.1775,55.46626333,24.99526517
68651,1,2,3,94,00:33:07,00:07:09,0.0,0.0,0.005171706322176909,0.265,1.03625,0.2525,55.46626317,24.99526517
68652,1,2,3,95,00:33:07,00:07:09,0.0,0.0,0.00678805169538636,0.22375,1.0825,0.26,55.466263,24.99526483
68653,1,2,3,96,00:33:07,00:07:09,0.3472225,3.472225,0.004235146166911841,0.18875,1.08125,0.245,55.46626283,24.99526467
68654,1,2,3,97,00:33:07,00:07:09,0.0,3.472225,0.005127585499228351,0.11375,1.0,0.33375,55.4662625,24.99526483
68655,1,2,3,98,00:33:07,00:07:09,0.0,0.0,0.0043933286676799636,-0.1225,0.91125,0.50875,55.46626217,24.99526483
68656,1,2,3,99,00:33:07,00:07:09,0.46944482,4.6944482,0.0038430023038333564,-0.17625,0.93,0.55375,55.4662615,24.99526467
68657,1,2,3,100,00:33:08,00:07:10,0.46944482,4.6944482,0.0035168211998837613,-0.13625,0.76875,0.61375,55.4662615,24.99526467
68658,1,2,3,101,00:33:08,00:07:10,0.0,4.944448400000001,0.004085347826747083,-0.1525,0.83625,0.6625,55.46626083,24.995264499999998
68659,1,2,3,102,00:33:08,00:07:10,0.35000028,3.5000028,0.004580037053908879,0.0775,0.7825,0.68375,55.46626067,24.99526417
68660,1,2,3,103,00:33:08,00:07:10,0.33888916,0.11111120000000001,0.003792185819628155,0.06,0.69,0.7275,55.4662605,24.995264000000002
68661,1,2,3,104,00:33:08,00:07:10,0.36666696,0.277778,0.0038340362390635336,0.20375,0.6012500000000001,0.75,55.46626067,24.99526367
68662,1,2,3,105,00:33:08,00:07:10,0.4861115,1.1944454,0.003813867356642032,0.1675,0.53125,0.7787499999999999,55.4662605,24.99526317
68663,1,2,3,106,00:33:08,00:07:10,0.34166694,1.4444456,0.0040535960312150215,0.04625,0.42625,0.87625,55.46626033,24.995263
68664,1,2,3,107,00:33:08,00:07:10,0.0,3.4166693999999995,0.0037421084285076717,0.0775,0.415,1.00375,55.46626017,24.995263
68665,1,2,3,108,00:33:08,00:07:10,0.0,0.0,0.003577512592840142,0.1175,0.3975,1.00875,55.46625983,24.99526283
68666,1,2,3,109,00:33:08,00:07:10,0.0,0.0,0.004162631883211483,0.1175,0.41,0.99375,55.4662595,24.99526283
68667,1,2,3,110,00:33:09,00:07:11,0.0,0.0,0.0035576262086516423,0.05375,0.405,0.94875,55.4662595,24.99526283
68668,1,2,3,111,00:33:09,00:07:11,0.0,0.0,0.002367270760312561,-0.04625,0.3925,1.0237500000000002,55.466258999999994,24.99526283
68669,1,2,3,112,00:33:09,00:07:11,0.0,0.0,0.0019714046755628773,-0.055,0.38375,1.04875,55.46625867,24.99526283
68670,1,2,3,113,00:33:09,00:07:11,0.0,0.0,0.0018495682387268577,-0.01625,0.38,1.0,55.466258499999995,24.99526283
68671,1,2,3,114,00:33:09,00:07:11,0.0,0.0,0.0015955830868604394,-0.0325,0.38,0.95625,55.46625833,24.99526283
68672,1,2,3,115,00:33:09,00:07:11,0.0,0.0,0.0013098385830773813,-0.05,0.39375,0.94125,55.46625817,24.995263
68673,1,2,3,116,00:33:09,00:07:11,0.0,0.0,0.0009267766952966367,-0.0475,0.4025,0.96125,55.466257999999996,24.995263
68674,1,2,3,117,00:33:09,00:07:11,0.0,0.0,0.001390119483078767,-0.05,0.3925,0.9625,55.466257999999996,24.99526317
68675,1,2,3,118,00:33:09,00:07:11,0.0,0.0,0.0012642978943763305,-0.05875,0.39,0.96125,55.46625783,24.99526317
68676,1,2,3,119,00:33:09,00:07:11,0.0,0.0,0.0013098385830773848,-0.0625,0.38375,0.95125,55.46625783,24.99526333
68677,1,2,3,120,00:33:10,00:07:12,0.0,0.0,0.001689248105628643,-0.065,0.38125,0.9525,55.46625783,24.99526333
68678,1,2,3,121,00:33:10,00:07:12,0.0,0.0,0.002201719515960653,-0.06375,0.38,0.97125,55.46625783,24.99526367
68679,1,2,3,122,00:33:10,00:07:12,0.0,0.0,0.0019038155387531308,-0.05375,0.38125,0.96375,55.46625783,24.99526367
68680,1,2,3,123,00:33:10,00:07:12,0.0,0.0,0.002516540619700028,-0.04875,0.3675,0.95625,55.46625783,24.99526383
68681,1,2,3,124,00:33:10,00:07:12,0.0,0.0,0.0015472110187731813,-0.04875,0.3725,0.97375,55.46625783,24.995264000000002
68682,1,2,3,125,00:33:10,00:07:12,0.0,0.0,0.0006767766952966371,-0.05,0.36625,0.9675,55.46625783,24.995264000000002
68683,1,2,3,126,00:33:10,00:07:12,0.0,0.0,0.0009785533905932763,-0.04625,0.3675,0.955,55.46625783,24.99526417
68684,1,2,3,127,00:33:10,00:07:12,0.0,0.0,0.001581709563168956,-0.0475,0.36875,0.96625,55.46625767,24.99526417
68685,1,2,3,128,00:33:10,00:07:12,0.0,0.0,0.0009267766952966374,-0.04875,0.3625,0.99125,55.46625767,24.99526433
68686,1,2,3,129,00:33:10,00:07:12,0.0,0.0,0.0010700597415393832,-0.052500000000000005,0.375,0.99875,55.4662575,24.99526433
68687,1,2,3,130,00:33:11,00:07:13,0.0,0.0,0.0014280226546839168,-0.04375,0.375,0.9525,55.4662575,24.99526433
68688,1,2,3,131,00:33:11,00:07:13,0.0,0.0,0.0013838834764831848,-0.045,0.37125,0.9375,55.46625733,24.995264499999998
68689,1,2,3,132,00:33:11,00:07:13,0.0,0.0,0.000945059741539384,-0.0325,0.37125,0.96,55.46625733,24.99526467
68690,1,2,3,133,00:33:11,00:07:13,0.0,0.0,0.0013220614028176835,-0.0375,0.36,1.00125,55.46625717,24.99526467
68691,1,2,3,134,00:33:11,00:07:13,0.0,0.0,0.0017661237755614968,-0.02875,0.375,1.02125,55.46625717,24.99526467
68692,1,2,3,135,00:33:11,00:07:13,0.0,0.0,0.00205004179530023,-0.0325,0.3775,0.9425,55.46625717,24.99526467
68693,1,2,3,136,00:33:11,00:07:13,0.0,0.0,0.0014968364368360206,-0.03,0.40875,0.91375,55.46625699999999,24.99526467
68694,1,2,3,137,00:33:11,00:07:13,0.0,0.0,0.001280330085889909,-0.01375,0.43375,0.93125,55.46625699999999,24.99526483
68695,1,2,3,138,00:33:11,00:07:13,0.0,0.0,0.0012530724434316012,-0.0225,0.43625,0.93625,55.46625699999999,24.995265
68696,1,2,3,139,00:33:11,00:07:13,0.0,0.0,0.0013321067811865467,-0.03125,0.43,0.93375,55.46625683,24.995265
68697,1,2,3,140,00:33:12,00:07:14,0.0,0.0,0.0011553300858899095,-0.04125,0.43,0.94125,55.46625683,24.995265
68698,1,2,3,141,00:33:12,00:07:14,0.0,0.0,0.0019926997281145557,-0.04,0.43875,0.935,55.46625667,24.99526517
68699,1,2,3,142,00:33:12,00:07:14,0.0,0.0,0.0009053300858899127,-0.05375,0.4525,0.91625,55.46625667,24.99526533
68700,1,2,3,143,00:33:12,00:07:14,0.0,0.0,0.0021445290056300256,-0.05375,0.45375,0.93375,55.46625649999999,24.99526533
68701,1,2,3,144,00:33:12,00:07:14,0.0,0.0,0.0026840087054638647,0.035,0.44875,0.92125,55.46625633,24.9952655
68702,1,2,3,145,00:33:12,00:07:14,0.0,0.0,0.004247168890516577,0.05625,0.47625,0.945,55.46625633,24.9952655
68703,1,2,3,146,00:33:12,00:07:14,0.0,0.0,0.0018180970007760351,0.05875,0.4775,0.915,55.46625633,24.99526567
68704,1,2,3,147,00:33:12,00:07:14,0.0,0.0,0.0024515625094168594,0.0125,0.465,0.92375,55.46625617,24.99526583
68705,1,2,3,148,00:33:12,00:07:14,0.0,0.0,0.002319549486885329,0.0025,0.48,0.92375,55.46625617,24.99526583
68706,1,2,3,149,00:33:12,00:07:14,0.0,0.0,0.003435013942928861,0.01875,0.4575,0.9225,55.46625600000001,24.995266
68707,1,2,3,150,00:33:13,00:07:15,0.0,0.0,0.0018030226546839185,0.02125,0.45875,0.9175,55.46625600000001,24.995266
68708,1,2,3,151,00:33:13,00:07:15,0.0,0.0,0.0023247420779204386,0.0425,0.45875,0.93875,55.46625583,24.99526617
68709,1,2,3,152,00:33:13,00:07:15,0.0,0.0,0.0027959911029219148,0.07125,0.44375,0.9525,55.46625583,24.99526633
68710,1,2,3,153,00:33:13,00:07:15,0.0,0.0,0.0022155930396521397,0.06874999999999999,0.425,0.9275,55.46625583,24.99526633
68711,1,2,3,154,00:33:13,00:07:15,0.0,0.0,0.0015909258262890695,0.07875,0.445,0.93375,55.46625583,24.9952665
68712,1,2,3,155,00:33:13,00:07:15,0.0,0.0,0.0022167731122280016,0.0775,0.455,0.91875,55.46625567,24.9952665
68713,1,2,3,156,00:33:13,00:07:15,0.0,0.0,0.0025335989773801553,0.08125,0.46125,0.93,55.46625567,24.99526667
68714,1,2,3,157,00:33:13,00:07:15,0.0,0.0,0.0016338834764831856,0.0425,0.46875,0.90375,55.46625583,24.99526683
68715,1,2,3,158,00:33:13,00:07:15,0.0,0.0,0.0015383919736706585,0.06625,0.47,0.9225,55.46625567,24.99526683
68716,1,2,3,159,00:33:13,00:07:15,0.0,0.0,0.0017651194830787661,0.06999999999999999,0.4675,0.92625,55.46625567,24.99526683
68717,1,2,3,160,00:33:14,00:07:16,0.0,0.0,0.0015995682387268564,0.0425,0.47625,0.92,55.46625567,24.99526683
68718,1,2,3,161,00:33:14,00:07:16,0.0,0.0,0.0009267766952966348,0.02875,0.46875,0.91,55.46625567,24.99526683
68719,1,2,3,162,00:33:14,00:07:16,0.0,0.0,0.0015883427877821266,0.04875,0.4675,0.93375,55.4662555,24.99526683
68720,1,2,3,163,00:33:14,00:07:16,0.0,0.0,0.0015375703849682199,0.04125,0.4525,0.93,55.4662555,24.99526683
68721,1,2,3,164,00:33:14,00:07:16,0.0,0.0,0.0014420788821556936,0.03875,0.4525,0.93,55.46625533,24.99526683
68722,1,2,3,165,00:33:14,00:07:16,0.0,0.0,0.0014097396084411713,0.02625,0.4625,0.9275,55.46625533,24.99526683
68723,1,2,3,166,00:33:14,00:07:16,0.0,0.0,0.001553022654683915,0.01375,0.4725,0.93875,55.46625533,24.99526667
68724,1,2,3,167,00:33:14,00:07:16,0.0,0.0,0.0014450597415393836,0.00125,0.48875,0.9175,55.46625517,24.99526667
68725,1,2,3,168,00:33:14,00:07:16,0.0,0.0,0.0015642481056286465,-0.0225,0.45625,0.915,55.46625517,24.99526667
68726,1,2,3,169,00:33:14,00:07:16,0.0,0.0,0.0026630574991097426,-0.06625,0.445,0.91875,55.466255000000004,24.9952665
68727,1,2,3,170,00:33:15,00:07:17,0.0,0.0,0.0036430190607976117,-0.12375,0.42,0.99,55.466255000000004,24.9952665
68728,1,2,3,171,00:33:15,00:07:17,0.0,0.0,0.00336622185184308,-0.1725,0.41625,1.06625,55.46625483,24.99526617
68729,1,2,3,172,00:33:15,00:07:17,0.32222248,3.2222248,0.004368187406197335,-0.135,0.35,1.1925,55.46625483,24.995266
68730,1,2,3,173,00:33:15,00:07:17,0.44166702,1.1944454,0.007330036994118614,0.0475,0.35625,1.05875,55.46625467,24.9952655
68731,1,2,3,174,00:33:15,00:07:17,0.39166698,0.5000004,0.004727550718654081,0.25625000000000003,0.5875,0.75625,55.46625483,24.99526533
68732,1,2,3,175,00:33:15,00:07:17,0.48333372,0.9166674000000001,0.00505857539547641,0.16999999999999998,0.5175,0.53625,55.466255000000004,24.99526483
68733,1,2,3,176,00:33:15,00:07:17,0.35555584,1.2777788,0.00971241261564088,0.21875,0.66,0.58625,55.46625517,24.99526467
68734,1,2,3,177,00:33:15,00:07:17,0.56388934,2.083335,0.01379293500407477,-0.11875,1.09375,0.935,55.46625483,24.99526417
68735,1,2,3,178,00:33:15,00:07:17,0.67777832,1.1388898,0.008102517960026541,-0.125,0.8162499999999999,0.55625,55.466254500000005,24.99526367
68736,1,2,3,179,00:33:15,00:07:17,0.7222228,0.44444480000000003,0.0049114254598693115,-0.14875,0.49125,0.375,55.46625417,24.995263
68737,1,2,3,180,00:33:16,00:07:18,0.7222228,0.44444480000000003,0.006453893760486349,-0.2925,0.8025,0.62125,55.46625417,24.995263
68738,1,2,3,181,00:33:16,00:07:18,1.04722306,1.6111124,0.00831475045834463,-0.2425,0.85375,0.80125,55.466254000000006,24.99526117
68739,1,2,3,182,00:33:16,00:07:18,1.42777892,3.8055586000000003,0.018253572413365098,0.17375,0.8975,0.6525,55.466254000000006,24.99525983
68740,1,2,3,183,00:33:16,00:07:18,1.63611242,2.083335,0.012926540444818372,0.3125,1.595,0.77875,55.46625433,24.99525833
68741,1,2,3,184,00:33:16,00:07:18,1.62222352,0.138889,0.02033578433496835,0.205,0.83875,0.46375,55.466255000000004,24.995257000000002
68742,1,2,3,185,00:33:16,00:07:18,1.79444588,1.7222236000000002,0.02128514404719848,0.245,-0.0925,0.17125,55.4662555,24.9952555
68743,1,2,3,186,00:33:16,00:07:18,2.08611278,2.9166689999999997,0.04530043925290866,-0.13625,1.42625,1.0925,55.46625600000001,24.9952535
68744,1,2,3,187,00:33:16,00:07:18,2.34444632,2.5833353999999997,0.0227714043460292,-0.23625,1.41,0.595,55.46625633,24.99525133
68745,1,2,3,188,00:33:16,00:07:18,2.34444632,0.0,0.03316635997929198,-0.185,0.053749999999999985,0.56,55.46625683,24.99524933
68746,1,2,3,189,00:33:16,00:07:18,2.78055778,4.3611146,0.04786918120448052,0.63,1.3825,1.05375,55.466257999999996,24.99524683
68747,1,2,3,190,00:33:17,00:07:19,2.78055778,4.3611146,0.01784591354530656,0.31625,0.90375,0.46875,55.466257999999996,24.99524683
68748,1,2,3,191,00:33:17,00:07:19,3.14722474,2.4166686,0.026750937350580473,0.2625,-0.1475,0.05375,55.46626067,24.995241500000002
68749,1,2,3,192,00:33:17,00:07:19,3.3472248999999996,2.0000016,0.060006543495056186,0.15,1.475,1.15875,55.4662615,24.9952385
68750,1,2,3,193,00:33:17,00:07:19,3.58889176,2.4166686,0.022519943458849712,-0.05125,1.3725,0.3975,55.4662625,24.99523533
68751,1,2,3,194,00:33:17,00:07:19,3.36666936,2.222224,0.034410098839218285,-0.55625,0.18375,0.17875,55.46626333,24.9952325
68752,1,2,3,195,00:33:17,00:07:19,3.57500286,2.083335,0.06997570813281229,0.39,1.32125,0.69625,55.466264,24.99522933
68753,1,2,3,196,00:33:17,00:07:19,3.7777808,2.0277794,0.027055141820381882,0.32125,1.61375,0.5125,55.46626533,24.99522617
68754,1,2,3,197,00:33:17,00:07:19,3.90833646,1.3055566,0.030268898323540083,0.5875,0.1575,-0.1025,55.46626683,24.99522283
68755,1,2,3,198,00:33:17,00:07:19,3.75278078,1.5555568000000002,0.08405629843406526,0.0775,1.33,0.8025,55.46626783,24.99521967
68756,1,2,3,199,00:33:17,00:07:19,4.01944766,2.6666687999999996,0.03402266972956012,0.04625,1.4575,0.46625,55.46626883,24.99521617
68757,1,2,3,200,00:33:18,00:07:20,4.01944766,2.6666687999999996,0.017868946932584836,-0.485,0.30375,0.15375,55.46626883,24.99521617
68758,1,2,3,201,00:33:18,00:07:20,3.91111424,1.6111124,0.06509781138545657,0.185,1.10125,0.475,55.46627033,24.99520933
68759,1,2,3,202,00:33:18,00:07:20,4.19722558,2.8611134,0.043241677070467485,0.405,1.675,0.47625,55.46627117,24.9952055
68760,1,2,3,203,00:33:18,00:07:20,4.29722566,1.0000008,0.023198731691416587,0.42375,0.315,0.08125,55.466272499999995,24.99520183
68761,1,2,3,204,00:33:18,00:07:20,4.305559,0.08333339999999999,0.05934100383826148,0.047500000000000014,0.6275,0.52125,55.4662735,24.995198000000002
68762,1,2,3,205,00:33:18,00:07:20,4.32500346,0.19444460000000002,0.06256739865630725,0.0575,1.99,0.83375,55.46627417,24.99519417
68763,1,2,3,206,00:33:18,00:07:20,4.54444808,2.1944462000000002,0.020438703467191358,-0.20375,0.5449999999999999,0.10625,55.46627483,24.99519
68764,1,2,3,207,00:33:18,00:07:20,4.33889236,2.0555572,0.026657036584289,-0.09875,0.02125,0.1575,55.4662755,24.99518633
68765,1,2,3,208,00:33:18,00:07:20,4.24444784,0.9444452,0.08840563125679646,0.3175,1.84,0.95125,55.46627617,24.99518267
68766,1,2,3,209,00:33:18,00:07:20,4.50555916,2.6111132,0.02006933092170655,0.2675,0.99375,0.15625,55.46627717,24.9951785
68767,1,2,3,210,00:33:19,00:07:21,4.50555916,2.6111132,0.03181919904942103,0.235,-0.061249999999999985,0.05125,55.46627717,24.9951785
68768,1,2,3,211,00:33:19,00:07:21,4.31111456,0.19444460000000002,0.09456890455990508,-1.7347234759768067e-18,1.89,1.2775,55.46627883,24.99517117
68769,1,2,3,212,00:33:19,00:07:21,4.50833694,1.9722238,0.028535192707501263,-0.09,1.06875,0.2375,55.466279500000006,24.995167000000002
68770,1,2,3,213,00:33:19,00:07:21,4.57500366,0.6666671999999999,0.021069335970519,-0.21375,-0.08,0.105,55.466280000000005,24.995163
68771,1,2,3,214,00:33:19,00:07:21,4.27222564,3.0277802000000005,0.16269808100580946,0.5187499999999999,2.235,0.7125,55.466281,24.99515933
68772,1,2,3,215,00:33:19,00:07:21,4.59444812,3.2222248,0.04252720212076047,0.1475,1.325,0.41625,55.46628183,24.99515517
68773,1,2,3,216,00:33:19,00:07:21,4.31667012,2.77778,0.01593567378289457,0.2475,0.11125,-0.13875,55.466283,24.99515167
68774,1,2,3,217,00:33:19,00:07:21,4.07500326,2.4166686,0.06130585098430445,0.14625,0.575,0.42125,55.466283999999995,24.99514833
68775,1,2,3,218,00:33:19,00:07:21,4.15555888,0.8055561999999998,0.16208664523206184,-0.011250000000000008,2.81375,0.6025,55.466285,24.99514467
68776,1,2,3,219,00:33:19,00:07:21,4.14166998,0.138889,0.023173055414630262,0.01,0.52,0.08,55.46628567,24.995141
68777,1,2,3,220,00:33:20,00:07:22,4.14166998,0.138889,0.023598693158993652,-0.3475,-0.05375,0.025,55.46628567,24.995141
68778,1,2,3,221,00:33:20,00:07:22,3.54444728,5.138893,0.15364232436603598,0.39875,2.755,0.4125,55.46628767,24.99513483
68779,1,2,3,222,00:33:20,00:07:22,3.75555856,2.1111128,0.06257410976147583,0.18,1.65375,0.51,55.46628867,24.9951315
68780,1,2,3,223,00:33:20,00:07:22,3.83055862,0.7500005999999999,0.020030870251702897,0.16125,-0.004999999999999993,0.04625,55.46628983,24.99512817
68781,1,2,3,224,00:33:20,00:07:22,3.3194470999999997,5.1111152,0.030931677313561463,0.07375,0.065,-0.00375,55.466291000000005,24.99512567
68782,1,2,3,225,00:33:20,00:07:22,3.14444696,1.7500014,0.15240413685514645,0.09875000000000003,2.3625,0.52375,55.46629217,24.99512317
68783,1,2,3,226,00:33:20,00:07:22,3.00278018,1.4166678,0.04896091170781144,0.02125,1.26875,0.21625,55.46629300000001,24.99512067
68784,1,2,3,227,00:33:20,00:07:22,2.93889124,0.6388894,0.016289445338911555,-0.1275,-0.01875,-0.08125,55.46629383,24.99511817
68785,1,2,3,228,00:33:20,00:07:22,2.56389094,3.750003,0.06342749905502804,0.16,1.1675,0.24,55.466294999999995,24.99511667
68786,1,2,3,229,00:33:20,00:07:22,2.38611302,1.7777792000000001,0.07184853522282783,0.08124999999999999,2.27625,0.47625,55.466296,24.99511483
68787,1,2,3,230,00:33:21,00:07:23,2.38611302,1.7777792000000001,0.016728823076449763,0.27,0.95,0.06625,55.466296,24.99511483
68788,1,2,3,231,00:33:21,00:07:23,2.22777956,3.9444476,0.010169216796166244,0.14625,0.07375,0.19625,55.4662985,24.99511117
68789,1,2,3,232,00:33:21,00:07:23,2.0138905,2.1388906000000003,0.09077363710637644,-0.052499999999999984,2.185,0.305,55.46629983,24.99511017
68790,1,2,3,233,00:33:21,00:07:23,1.92500154,0.8888896000000001,0.042538814115853016,0.31625,1.1825,0.345,55.46630117,24.995109
68791,1,2,3,234,00:33:21,00:07:23,1.58055682,3.4444472000000004,0.009361617379774341,0.002500000000000002,0.6625,0.09875,55.46630183,24.995108
68792,1,2,3,235,00:33:21,00:07:23,1.53055678,0.5000004,0.007642834728973777,-0.03125,0.7,0.31875,55.46630317,24.9951075
68793,1,2,3,236,00:33:21,00:07:23,1.43889004,0.9166674000000001,0.016078041565743,0.11375,1.3025,0.24875,55.46630433,24.99510717
68794,1,2,3,237,00:33:21,00:07:23,1.42777892,0.11111120000000001,0.012713692822820696,0.195,1.44625,0.3025,55.46630567,24.99510667
68795,1,2,3,238,00:33:21,00:07:23,1.13611202,2.9166689999999997,0.007884883497453374,-0.0225,0.92375,0.18375,55.46630667,24.99510667
68796,1,2,3,239,00:33:21,00:07:23,1.30277882,1.666668,0.009147537626576016,0.01875,1.0175,0.215,55.466308,24.99510667
68797,1,2,3,240,00:33:22,00:07:24,1.30277882,1.666668,0.012815647037080515,0.28125,0.905,0.45,55.466308,24.99510667
68798,1,2,3,241,00:33:22,00:07:24,1.43611226,0.38888920000000005,0.02892116366883833,0.1475,1.29125,0.80875,55.4663105,24.9951075
68799,1,2,3,242,00:33:22,00:07:24,1.60000128,1.6388901999999999,0.009707401778897869,-0.01625,0.52125,0.30125,55.466312,24.995108
68800,1,2,3,243,00:33:22,00:07:24,1.60833462,0.08333339999999999,0.015335230779797562,-0.145,0.8225,0.51625,55.46631333,24.99510883
68801,1,2,3,244,00:33:22,00:07:24,1.83889036,2.3055574,0.018528758990630355,0.0125,0.7875,0.82875,55.46631483,24.99511
68802,1,2,3,245,00:33:22,00:07:24,1.84444592,0.055555600000000004,0.027087225226045626,0.34875,1.25875,0.82875,55.466316000000006,24.99511117
68803,1,2,3,246,00:33:22,00:07:24,2.01666828,1.7222236000000002,0.018457116867265897,0.59875,1.385,0.7275,55.46631733,24.99511267
68804,1,2,3,247,00:33:22,00:07:24,2.07222388,0.555556,0.015965299138136286,0.25875,0.33875,0.3175,55.46631817,24.99511433
68805,1,2,3,248,00:33:22,00:07:24,2.3333352,2.6111132,0.029987377324623376,0.13375,0.09125,0.4925,55.46631933,24.99511633
68806,1,2,3,249,00:33:22,00:07:24,2.71666884,3.8333364000000003,0.04816888986778031,0.06,1.9125,1.155,55.46632083,24.9951185
68807,1,2,3,250,00:33:23,00:07:25,2.71666884,3.8333364000000003,0.02161475988588311,-0.12375,1.0575,0.3975,55.46632083,24.9951185
68808,1,2,3,251,00:33:23,00:07:25,2.41944638,1.8333348000000003,0.020383044690846487,-0.33,-0.07625,0.205,55.4663235,24.99512217
68809,1,2,3,252,00:33:23,00:07:25,2.8750023,4.5555592,0.06388077734579055,0.50875,1.2725,0.91,55.46632467,24.99512467
68810,1,2,3,253,00:33:23,00:07:25,3.18889144,3.1388914,0.01822646301521574,0.42625,1.37875,0.7050000000000001,55.466326,24.99512733
68811,1,2,3,254,00:33:23,00:07:25,2.84166894,3.472225,0.01968441878070995,0.33375,0.0375,0.08875,55.466327,24.99512967
68812,1,2,3,255,00:33:23,00:07:25,3.11389138,2.7222244,0.064510796575556,-0.05,1.01625,0.56125,55.46632833,24.99513217
68813,1,2,3,256,00:33:23,00:07:25,3.36666936,2.5277798,0.0556689986951023,0.061249999999999985,1.68875,0.8725,55.466330000000006,24.99513483
68814,1,2,3,257,00:33:23,00:07:25,3.20278034,1.6388901999999999,0.01644053844757736,-0.1975,0.6975,0.185,55.46633167,24.99513717
68815,1,2,3,258,00:33:23,00:07:25,3.13055806,0.7222228,0.043997266352907925,-0.021249999999999998,-0.07500000000000001,0.3525,55.46633317,24.99513983
68816,1,2,3,259,00:33:23,00:07:25,3.37778048,2.4722242000000003,0.056791468581897236,0.06625,2.1575,0.90875,55.466334499999995,24.9951425
68817,1,2,3,260,00:33:24,00:07:26,3.37778048,2.4722242000000003,0.018824286228363917,0.12375,1.135,0.25625,55.466334499999995,24.9951425
68818,1,2,3,261,00:33:24,00:07:26,3.26666928,2.500002,0.02708561872106508,0.4575,0.08,-0.1675,55.466337,24.99514817
68819,1,2,3,262,00:33:24,00:07:26,3.39166938,1.250001,0.0884250666882482,-0.17875,1.685,1.15625,55.466338,24.99515117
68820,1,2,3,263,00:33:24,00:07:26,3.67778072,2.8611134,0.017330195194224386,-0.05625,1.42125,0.4975,55.466339500000004,24.99515417
68821,1,2,3,264,00:33:24,00:07:26,3.57778064,1.0000008,0.022084052906025817,-0.38375,0.062499999999999986,0.09875,55.46634117,24.99515717
68822,1,2,3,265,00:33:24,00:07:26,3.60833622,0.3055558,0.08082861563944935,0.25875,1.3,0.8887499999999999,55.466342000000004,24.99516017
68823,1,2,3,266,00:33:24,00:07:26,3.82778084,2.1944462000000002,0.031124952373265083,0.13625,1.47375,0.765,55.466343,24.99516367
68824,1,2,3,267,00:33:24,00:07:26,3.98055874,1.527779,0.01890574100366666,0.26,0.405,0.037500000000000006,55.46634383,24.99516717
68825,1,2,3,268,00:33:24,00:07:26,3.45278054,5.277782,0.05348363214132993,0.08875000000000001,0.34,0.44,55.46634417,24.99517
68826,1,2,3,269,00:33:24,00:07:26,3.45555832,0.027777800000000002,0.05258781116886136,-0.1775,2.19,0.94625,55.46634483,24.99517317
68827,1,2,3,270,00:33:25,00:07:27,3.45555832,0.027777800000000002,0.018075308866516114,-0.03375,0.87,0.18375,55.46634483,24.99517317
68828,1,2,3,271,00:33:25,00:07:27,3.44722498,3.0277802000000005,0.014555001918216397,-0.33,-0.1175,0.1725,55.46634633,24.995179500000003
68829,1,2,3,272,00:33:25,00:07:27,3.56389174,1.1666676,0.09917450130050147,0.38125,1.51625,0.94875,55.4663465,24.99518283
68830,1,2,3,273,00:33:25,00:07:27,3.81389194,2.500002,0.019121153965083282,0.28500000000000003,1.3625,0.405,55.46634667,24.99518633
68831,1,2,3,274,00:33:25,00:07:27,3.60000288,2.1388906000000003,0.01655402556470193,0.36625,0.006250000000000007,-0.06125,55.46634667,24.9951895
68832,1,2,3,275,00:33:25,00:07:27,3.54722506,0.5277782,0.07368878526570699,0.02625,1.4675,0.66,55.4663465,24.99519267
68833,1,2,3,276,00:33:25,00:07:27,3.66944738,1.2222232,0.05727177226628116,0.26125,1.66,0.80875,55.46634667,24.995196
68834,1,2,3,277,00:33:25,00:07:27,3.70000296,0.3055558,0.01550358495974808,-0.09375,0.5525,0.0975,55.46634683,24.99519933
68835,1,2,3,278,00:33:25,00:07:27,3.31111376,3.888892,0.03202394515956882,-0.15875,0.06749999999999999,0.2375,55.466347,24.99520217
68836,1,2,3,279,00:33:25,00:07:27,3.35000268,0.38888920000000005,0.0955732899837245,0.515,1.96125,0.90625,55.466347,24.99520517
68837,1,2,3,280,00:33:26,00:07:28,3.35000268,0.38888920000000005,0.022880708372524133,0.335,1.15625,0.16125,55.466347,24.99520517
68838,1,2,3,281,00:33:26,00:07:28,3.333336,1.666668,0.01957793114169506,0.33875,-0.27125,-0.0175,55.4663465,24.99521117
68839,1,2,3,282,00:33:26,00:07:28,3.38611382,0.5277782,0.08728048933516612,0.01625,1.94125,0.41875,55.4663465,24.99521417
68840,1,2,3,283,00:33:26,00:07:28,3.46389166,0.7777784000000001,0.08426586882820547,0.095,1.88375,0.7,55.4663465,24.99521733
68841,1,2,3,284,00:33:26,00:07:28,2.96389126,5.000004,0.016653223556696146,0.1975,0.62625,0.0575,55.466347,24.99521967
68842,1,2,3,285,00:33:26,00:07:28,3.13055806,1.666668,0.03401155424281042,-0.16499999999999998,-0.08625000000000001,0.1225,55.466347,24.99522267
68843,1,2,3,286,00:33:26,00:07:28,3.14444696,0.138889,0.13670103532620215,1.00375,2.2575,0.34125,55.46634717,24.99522533
68844,1,2,3,287,00:33:26,00:07:28,2.97500238,1.6944457999999998,0.038242006765857095,0.3925,1.705,0.09125,55.4663475,24.995228
68845,1,2,3,288,00:33:26,00:07:28,2.8750023,1.0000008,0.012457568306462006,0.27875,0.11375,-0.0775,55.46634717,24.995230499999998
68846,1,2,3,289,00:33:26,00:07:28,2.50555756,3.6944474,0.013498986413446587,0.14375,-0.07375,-0.0525,55.4663475,24.99523267
68847,1,2,3,290,00:33:27,00:07:29,2.50555756,3.6944474,0.1441372259730102,0.4675,2.1825,0.645,55.4663475,24.99523267
68848,1,2,3,291,00:33:27,00:07:29,1.99444604,4.277781200000001,0.02292647782012305,-0.08124999999999999,1.2475,0.15,55.466349,24.99523633
68849,1,2,3,292,00:33:27,00:07:29,1.90833486,0.8611118000000001,0.008650434387341402,-0.0925,0.345,0.14250000000000002,55.46634917,24.99523817
68850,1,2,3,293,00:33:27,00:07:29,1.88333484,0.2500002,0.015027550115545275,-0.0675,0.40875,0.18875,55.46635017,24.99523967
68851,1,2,3,294,00:33:27,00:07:29,1.98333492,1.0000008,0.061222083203356974,0.5875,2.1975,0.70875,55.46635067,24.99524133
68852,1,2,3,295,00:33:27,00:07:29,1.89166818,0.9166674000000001,0.021507378520690297,0.28125,1.185,0.3,55.46635133,24.995243
68853,1,2,3,296,00:33:27,00:07:29,1.78889032,1.0277786,0.007004752619091894,0.3725,0.395,0.05375,55.46635183,24.99524467
68854,1,2,3,297,00:33:27,00:07:29,1.48889008,3.0000023999999996,0.010800466942506418,0.33125,0.80625,0.11875,55.46635233,24.99524583
68855,1,2,3,298,00:33:27,00:07:29,1.28333436,2.0555572,0.00974595026642213,0.36,1.375,0.17,55.46635267,24.995247
68856,1,2,3,299,00:33:27,00:07:29,1.06666752,2.1666684,0.005775918052494057,0.02625,1.17625,0.15625,55.46635267,24.995248
68857,1,2,3,300,00:33:28,00:07:30,1.06666752,2.1666684,0.006146179841044086,0.06625,0.8625,0.28625,55.46635267,24.995248
68858,1,2,3,301,00:33:28,00:07:30,0.77222284,0.972223,0.010813531065002772,-0.02375,1.195,0.49625,55.466352,24.99524967
68859,1,2,3,302,00:33:28,00:07:30,0.81111176,0.38888920000000005,0.004612023301017836,-0.03875,0.8525,0.30125,55.466352,24.9952505
68860,1,2,3,303,00:33:28,00:07:30,0.74166726,0.694445,0.003381893052661801,-0.11875,0.97625,0.295,55.46635183,24.99525133
68861,1,2,3,304,00:33:28,00:07:30,0.83055622,0.8888896000000001,0.003386376705332364,-0.01,0.965,0.2875,55.46635183,24.99525233
68862,1,2,3,305,00:33:28,00:07:30,0.65000052,1.805557,0.006606593346296263,0.105,1.2725,0.21125,55.466352,24.99525317
68863,1,2,3,306,00:33:28,00:07:30,0.76944506,1.1944454,0.009020326422043805,0.10625,1.0425,0.2225,55.46635233,24.995254
68864,1,2,3,307,00:33:28,00:07:30,0.57222268,1.9722238,0.006722998995426321,0.075,1.14125,0.195,55.4663525,24.99525433
68865,1,2,3,308,00:33:28,00:07:30,0.6666671999999999,0.9444452,0.003059125275114636,0.02,1.0975,0.16125,55.46635267,24.99525483
68866,1,2,3,309,00:33:28,00:07:30,0.46666704,2.0000016,0.0033720171540393947,0.1925,1.0175,0.16999999999999998,55.46635267,24.99525517
68867,1,2,3,310,00:33:29,00:07:31,0.46666704,2.0000016,0.0035899376809873096,0.155,1.06,0.155,55.46635267,24.99525517
68868,1,2,3,311,00:33:29,00:07:31,0.0,3.888892,0.00144006969433108,0.17625,1.0025,0.15625,55.46635283,24.9952555
68869,1,2,3,312,00:33:29,00:07:31,0.30000024,3.0000023999999996,0.00931300653619735,0.08625000000000001,1.20875,0.19625,55.46635267,24.99525567
68870,1,2,3,313,00:33:29,00:07:31,0.35833362,0.5833338,0.005680164052580257,0.06625,1.06625,0.20625,55.46635233,24.99525567
68871,1,2,3,314,00:33:29,00:07:31,0.43611146,0.7777784000000001,0.004794376532104323,0.1175,1.03,0.265,55.46635183,24.99525583
68872,1,2,3,315,00:33:29,00:07:31,0.43888924,0.027777800000000002,0.0033551762752284174,-0.0575,1.07625,0.38125,55.4663515,24.995256
68873,1,2,3,316,00:33:29,00:07:31,0.38611142,0.5277782,0.0016047993499805526,-0.04,1.01375,0.35375,55.46635117,24.99525583
68874,1,2,3,317,00:33:29,00:07:31,0.41944478,0.33333359999999995,0.0017462559121789786,-0.04625,1.0074999999999998,0.3475,55.46635067,24.995256
68875,1,2,3,318,00:33:29,00:07:31,0.0,4.1944478,0.0014531216293201324,-0.03625,1.00875,0.3475,55.46635067,24.995256
68876,1,2,3,319,00:33:29,00:07:31,0.0,0.0,0.0018369406744226516,-0.00625,1.02625,0.365,55.46635067,24.99525583
68877,1,2,3,320,00:33:30,00:07:32,0.0,0.0,0.00505138480797116,-0.0225,0.98875,0.34750000000000003,55.46635067,24.99525583
68878,1,2,3,321,00:33:30,00:07:32,0.0,0.0,0.0056762499917346505,0.14375,1.13125,0.38,55.4663505,24.9952555
68879,1,2,3,322,00:33:30,00:07:32,0.54444488,5.4444488,0.0025261887800512983,0.07125,1.06625,0.36125,55.4663505,24.99525483
68880,1,2,3,323,00:33:30,00:07:32,0.5694449,0.2500002,0.0021900696943310807,0.10625,0.9975,0.295,55.4663505,24.9952545
68881,1,2,3,324,00:33:30,00:07:32,0.5000004,0.694445,0.003105554120217333,0.1875,1.01375,0.30125,55.4663505,24.99525417
68882,1,2,3,325,00:33:30,00:07:32,0.65000052,1.5000011999999998,0.002796616330822229,0.1725,1.06125,0.23125,55.46635067,24.99525367
68883,1,2,3,326,00:33:30,00:07:32,0.5416671,1.0833342,0.0025115883748240263,0.15125,1.05625,0.18,55.46635067,24.99525333
68884,1,2,3,327,00:33:30,00:07:32,0.5277782,0.138889,0.002120434323476542,0.17625000000000002,1.02875,0.165,55.46635083,24.99525283
68885,1,2,3,328,00:33:30,00:07:32,0.47777816,0.5000004,0.0028435995962723237,0.2225,1.01375,0.13875,55.46635067,24.9952525
68886,1,2,3,329,00:33:30,00:07:32,0.61666716,1.38889,0.008559077129843586,0.18,1.30125,0.28,55.4663505,24.99525183
68887,1,2,3,330,00:33:31,00:07:33,0.61666716,1.38889,0.00476430673167814,0.3025,0.99875,0.25375000000000003,55.4663505,24.99525183
68888,1,2,3,331,00:33:31,00:07:33,0.65833386,0.694445,0.0041515415576763364,0.14375,0.92875,0.31,55.46634983,24.995251
68889,1,2,3,332,00:33:31,00:07:33,0.7916673000000001,1.3333343999999998,0.0036538839762174217,0.065,1.10875,0.39375,55.4663495,24.99525017
68890,1,2,3,333,00:33:31,00:07:33,0.58611158,2.0555572,0.0033805783538026182,0.05,1.01,0.32125,55.46634883,24.99525017
68891,1,2,3,334,00:33:31,00:07:33,0.5972227,0.11111120000000001,0.002117851284969605,0.015,0.97375,0.28125,55.466348499999995,24.99524967
68892,1,2,3,335,00:33:31,00:07:33,0.53333376,0.6388894,0.002033781763019711,0.00625,0.9775,0.32,55.46634817,24.99524933
68893,1,2,3,336,00:33:31,00:07:33,0.53888932,0.055555600000000004,0.007290383387233546,0.05,1.21,0.38875,55.46634767,24.99524917
68894,1,2,3,337,00:33:31,00:07:33,0.61944494,0.8055561999999998,0.005530105402873101,0.1,1.06625,0.365,55.46634717,24.99524883
68895,1,2,3,338,00:33:31,00:07:33,0.60000048,0.19444460000000002,0.003468353678550141,0.085,0.87,0.3425,55.46634683,24.9952485
68896,1,2,3,339,00:33:31,00:07:33,0.57222268,0.277778,0.003351549426200976,0.28375,1.07,0.41125,55.4663465,24.995248
68897,1,2,3,340,00:33:32,00:07:34,0.57222268,0.277778,0.0028104116379467857,0.205,0.98875,0.33875,55.4663465,24.995248
68898,1,2,3,341,00:33:32,00:07:34,0.58888936,0.3611114,0.0027552287241687013,0.275,0.905,0.34375,55.46634567,24.99524717
68899,1,2,3,342,00:33:32,00:07:34,0.49444484,0.9444452,0.004421667948760593,0.3725,0.7925,0.365,55.46634517,24.995247
68900,1,2,3,343,00:33:32,00:07:34,0.5416671,0.4722226,0.011676820835066543,0.14375000000000002,1.1475,0.4125,55.46634467,24.99524683
68901,1,2,3,344,00:33:32,00:07:34,0.50833374,0.33333359999999995,0.004609862088954765,0.13,1.0625,0.305,55.46634417,24.99524667
68902,1,2,3,345,00:33:32,00:07:34,0.52222264,0.138889,0.0034111103285128863,0.10875,1.07375,0.245,55.46634367,24.995247
68903,1,2,3,346,00:33:32,00:07:34,0.45277814,0.694445,0.0050375761566949905,-0.055,1.0675,0.33625,55.46634317,24.99524683
68904,1,2,3,347,00:33:32,00:07:34,0.44444480000000003,0.08333339999999999,0.0032329479134002577,-0.06,1.0725,0.265,55.46634267,24.99524683
68905,1,2,3,348,00:33:32,00:07:34,0.44166702,0.027777800000000002,0.0018576301265076027,-0.0725,1.055,0.25625,55.46634217,24.995247
68906,1,2,3,349,00:33:32,00:07:34,0.31666692,1.250001,0.0030290437798164323,-0.11375,1.0075,0.31875,55.46634183,24.99524683
68907,1,2,3,350,00:33:33,00:07:35,0.31666692,1.250001,0.003182723161755157,-0.052500000000000005,1.04375,0.3325,55.46634183,24.99524683
68908,1,2,3,351,00:33:33,00:07:35,0.0,3.1944470000000003,0.0028439224692779464,0.0125,1.0225,0.32875,55.46634117,24.99524667
68909,1,2,3,352,00:33:33,00:07:35,0.0,0.0,0.0035761031526173907,0.075,1.02125,0.3325,55.466341,24.99524633
68910,1,2,3,353,00:33:33,00:07:35,0.0,0.0,0.0033774296938232817,0.095,1.03375,0.305,55.466341,24.99524617
68911,1,2,3,354,00:33:33,00:07:35,0.0,0.0,0.003203097938752347,0.105,1.02875,0.28875,55.46634083,24.99524583
68912,1,2,3,355,00:33:33,00:07:35,0.0,0.0,0.003393878337842905,0.1575,1.0125,0.3075,55.46634083,24.99524567
68913,1,2,3,356,00:33:33,00:07:35,0.0,0.0,0.003345667144362041,0.11625,1.0825,0.2625,55.46634067,24.9952455
68914,1,2,3,357,00:33:33,00:07:35,0.0,0.0,0.00210565268846739,0.1075,1.0575,0.27125,55.4663405,24.99524533
68915,1,2,3,358,00:33:33,00:07:35,0.0,0.0,0.0014392481056286453,0.09625,1.085,0.24125,55.4663405,24.99524517
68916,1,2,3,359,00:33:33,00:07:35,0.0,0.0,0.002398874461667797,0.1025,1.0725,0.265,55.46634033,24.995245
68917,1,2,3,360,00:33:34,00:07:36,0.0,0.0,0.0018556526884673913,0.09125,1.055,0.2625,55.46634033,24.995245
68918,1,2,3,361,00:33:34,00:07:36,0.0,0.0,0.002733469885900225,0.22125,1.0175,0.22875,55.46634017,24.995245
68919,1,2,3,362,00:33:34,00:07:36,0.0,0.0,0.0021544173774550954,0.40375,0.98125,0.26875,55.46634017,24.99524483
68920,1,2,3,363,00:33:34,00:07:36,0.0,0.0,0.0022480823962233013,0.37375,0.94375,0.2975,55.46634033,24.99524483
68921,1,2,3,364,00:33:34,00:07:36,0.0,0.0,0.0019222110187731773,0.32875,0.9625,0.22,55.46634017,24.99524483
68922,1,2,3,365,00:33:34,00:07:36,0.0,0.0,0.005013546004995396,0.215,1.02875,0.235,55.46634,24.995245
68923,1,2,3,366,00:33:34,00:07:36,0.0,0.0,0.004116226403930136,0.08125,1.12625,0.315,55.46633967,24.99524517
68924,1,2,3,367,00:33:34,00:07:36,0.5000004,5.000004,0.002417600808122228,0.15625,1.09,0.29000000000000004,55.46633933,24.99524567
68925,1,2,3,368,00:33:34,00:07:36,0.49444484,0.055555600000000004,0.002542221574424035,0.08875,1.05375,0.33,55.466339000000005,24.995245999999998
68926,1,2,3,369,00:33:34,00:07:36,0.40000032,0.9444452,0.0022655438537636107,0.06125,1.0325,0.34,55.46633867,24.99524617
68927,1,2,3,370,00:33:35,00:07:37,0.40000032,0.9444452,0.0021983073622049627,0.05,0.99125,0.27625,55.46633867,24.99524617
68928,1,2,3,371,00:33:35,00:07:37,0.44166702,1.2777788,0.002332379595016343,0.0275,0.9625,0.27625,55.46633783,24.995247
68929,1,2,3,372,00:33:35,00:07:37,0.52500042,0.833334,0.002699136477453712,0.05625,0.99875,0.28625,55.46633733,24.99524717
68930,1,2,3,373,00:33:35,00:07:37,0.47777816,0.4722226,0.015670939360655736,0.1775,1.26,0.415,55.466337,24.99524733
68931,1,2,3,374,00:33:35,00:07:37,0.61666716,1.38889,0.005931277309043094,0.105,0.95875,0.3925,55.46633633,24.99524767
68932,1,2,3,375,00:33:35,00:07:37,0.71388946,0.972223,0.0028572699547101906,0.20375,0.955,0.41625,55.46633583,24.995248
68933,1,2,3,376,00:33:35,00:07:37,0.6111116,1.0277786,0.0019097396084411715,0.23875,0.895,0.45875,55.46633533,24.99524833
68934,1,2,3,377,00:33:35,00:07:37,0.66944498,0.5833338,0.0032558801769967944,0.25625000000000003,0.8475,0.4675,55.46633467,24.99524867
68935,1,2,3,378,00:33:35,00:07:37,0.7083339,0.38888920000000005,0.0037814652587198406,0.12375,0.9625,0.44125,55.46633433,24.99524917
68936,1,2,3,379,00:33:35,00:07:37,0.69722278,0.11111120000000001,0.004342296823716286,-0.03625,1.045,0.4725,55.46633383,24.99524967
68937,1,2,3,380,00:33:36,00:07:38,0.69722278,0.11111120000000001,0.0033079708997752703,-0.045,1.04625,0.48375,55.46633383,24.99524967
68938,1,2,3,381,00:33:36,00:07:38,0.81388954,0.22222240000000001,0.0026407204864283425,-0.04375,0.9575,0.41125,55.46633317,24.995251
68939,1,2,3,382,00:33:36,00:07:38,0.65833386,1.5555568000000002,0.0023347814037413994,-0.0825,0.9925,0.41875,55.46633283,24.99525133
68940,1,2,3,383,00:33:36,00:07:38,0.48055594,1.7777792000000001,0.0011432830462427474,-0.0375,0.99375,0.44625,55.46633283,24.99525183
68941,1,2,3,384,00:33:36,00:07:38,0.49444484,0.138889,0.001070059741539384,-0.0375,0.9775,0.45,55.46633267,24.99525217
68942,1,2,3,385,00:33:36,00:07:38,0.0,4.944448400000001,0.002328961388712753,-0.045,0.95125,0.515,55.46633249999999,24.99525217
68943,1,2,3,386,00:33:36,00:07:38,0.0,0.0,0.001349568238726857,-0.06125,0.92375,0.54375,55.46633249999999,24.99525233
68944,1,2,3,387,00:33:36,00:07:38,0.0,0.0,0.001103553390593273,-0.08374999999999999,0.89125,0.575,55.46633249999999,24.9952525
68945,1,2,3,388,00:33:36,00:07:38,0.0,0.0,0.0019017693047083406,-0.0725,0.90125,0.58,55.46633249999999,24.9952525
68946,1,2,3,389,00:33:36,00:07:38,0.0,0.0,0.0017214046755628775,-0.0625,0.9025,0.54875,55.46633267,24.9952525
68947,1,2,3,390,00:33:37,00:07:39,0.0,0.0,0.0014236131321326564,-0.045,0.9275,0.5137499999999999,55.46633267,24.9952525
68948,1,2,3,391,00:33:37,00:07:39,0.0,0.0,0.001332106781186547,-0.00625,0.93125,0.49375,55.46633317,24.99525233
68949,1,2,3,392,00:33:37,00:07:39,0.41944478,4.1944478,0.0018973597821570773,0.05,0.9325,0.46125,55.46633367,24.99525233
68950,1,2,3,393,00:33:37,00:07:39,0.46388926,0.44444480000000003,0.0019826301265076047,0.115,1.03625,0.41,55.466333999999996,24.99525217
68951,1,2,3,394,00:33:37,00:07:39,0.56111156,0.972223,0.0022629602123975185,0.175,1.05125,0.38375,55.46633467,24.995252
68952,1,2,3,395,00:33:37,00:07:39,0.57777824,0.16666679999999998,0.004594906850332369,0.0975,1.02875,0.395,55.46633517,24.99525183
68953,1,2,3,396,00:33:37,00:07:39,0.51111152,0.6666671999999999,0.00393506395329131,0.1175,1.06375,0.40125,55.46633567,24.99525167
68954,1,2,3,397,00:33:37,00:07:39,0.38888920000000005,1.2222232,0.0018762459593872796,0.1725,0.98375,0.3275,55.466336,24.99525183
68955,1,2,3,398,00:33:37,00:07:39,0.40000032,0.11111120000000001,0.002258153471828664,0.1975,0.96875,0.3025,55.4663365,24.99525167
68956,1,2,3,399,00:33:37,00:07:39,0.33333359999999995,0.6666671999999999,0.0026023781779852826,0.1875,1.03125,0.30375,55.46633683,24.99525167
68957,1,2,3,400,00:33:38,00:07:40,0.33333359999999995,0.6666671999999999,0.0024644689400987628,0.14625,1.09125,0.2475,55.46633683,24.99525167
68958,1,2,3,401,00:33:38,00:07:40,0.0,0.0,0.0023773105250688865,0.13125,1.04875,0.2175,55.466337,24.99525183
68959,1,2,3,402,00:33:38,00:07:40,0.0,0.0,0.002314869006231393,0.1725,1.0475,0.23375,55.46633717,24.99525183
68960,1,2,3,403,00:33:38,00:07:40,0.0,0.0,0.00267263538945802,0.1325,1.02,0.25625,55.46633717,24.99525167
68961,1,2,3,404,00:33:38,00:07:40,0.0,0.0,0.0038097530994045405,0.13,1.07625,0.27625,55.46633717,24.99525167
68962,1,2,3,405,00:33:38,00:07:40,0.0,0.0,0.0029023009916163463,0.14500000000000002,1.04625,0.22125,55.46633733,24.99525167
68963,1,2,3,406,00:33:38,00:07:40,0.0,0.0,0.002680909109060435,0.2025,1.0775,0.10875,55.46633733,24.99525167
68964,1,2,3,407,00:33:38,00:07:40,0.0,0.0,0.0029972057569029103,0.18875,1.1175,0.03625,55.4663375,24.99525183
68965,1,2,3,408,00:33:38,00:07:40,0.0,0.0,0.003322671461857939,0.11875,1.1225,0.05875,55.4663375,24.99525183
68966,1,2,3,409,00:33:38,00:07:40,0.0,0.0,0.0037681764580190257,0.16375,1.0825,0.09,55.4663375,24.99525183
68967,1,2,3,410,00:33:39,00:07:41,0.0,0.0,0.0021176997281145533,0.13,1.08,0.1125,55.4663375,24.99525183
68968,1,2,3,411,00:33:39,00:07:41,0.0,0.0,0.0030912689101218536,0.18875,1.06125,0.145,55.4663375,24.99525183
68969,1,2,3,412,00:33:39,00:07:41,0.0,0.0,0.001276344934023493,0.165,1.04875,0.1525,55.4663375,24.99525183
68970,1,2,3,413,00:33:39,00:07:41,0.0,0.0,0.0018317095631689559,0.1175,1.085,0.1375,55.46633767,24.99525183
68971,1,2,3,414,00:33:39,00:07:41,0.0,0.0,0.0018696771661547696,0.15875,1.07375,0.14625,55.46633767,24.99525183
68972,1,2,3,415,00:33:39,00:07:41,0.0,0.0,0.0020195290056300263,0.14125,1.07875,0.1375,55.46633767,24.99525183
68973,1,2,3,416,00:33:39,00:07:41,0.0,0.0,0.001937089437806552,0.13,1.08875,0.11625,55.46633767,24.99525183
68974,1,2,3,417,00:33:39,00:07:41,0.0,0.0,0.0020391491309924353,0.135,1.095,0.105,55.46633767,24.99525183
68975,1,2,3,418,00:33:39,00:07:41,0.0,0.0,0.001121014848133583,0.1525,1.08375,0.095,55.46633783,24.99525183
68976,1,2,3,419,00:33:39,00:07:41,0.0,0.0,0.0009267766952966374,0.1475,1.09125,0.0975,55.46633783,24.99525183
68977,1,2,3,420,00:33:40,00:07:42,0.0,0.0,0.0014410745896729679,0.1525,1.0925,0.11375,55.46633783,24.99525183
68978,1,2,3,421,00:33:40,00:07:42,0.0,0.0,0.0016476925687940065,0.14875,1.05625,0.12625,55.466338,24.99525183
68979,1,2,3,422,00:33:40,00:07:42,0.0,0.0,0.0012071067811865509,0.1375,1.08875,0.13375,55.466338,24.99525183
68980,1,2,3,423,00:33:40,00:07:42,0.0,0.0,0.001681675019913404,0.14875,1.0799999999999998,0.14375000000000002,55.46633783,24.99525183
68981,1,2,3,424,00:33:40,00:07:42,0.0,0.0,0.0019907780306315024,0.1125,1.0775,0.14875,55.466338,24.995252
68982,1,2,3,425,00:33:40,00:07:42,0.0,0.0,0.0019543681915665675,0.07875,1.08,0.16,55.46633783,24.99525183
68983,1,2,3,426,00:33:40,00:07:42,0.0,0.0,0.0011035533905932736,0.08875,1.08,0.1725,55.46633783,24.995252
68984,1,2,3,427,00:33:40,00:07:42,0.0,0.0,0.002414421944822229,0.09875,1.075,0.16999999999999998,55.46633783,24.99525217
68985,1,2,3,428,00:33:40,00:07:42,0.0,0.0,0.0017857712340685727,0.09375,1.08,0.18,55.46633783,24.99525217
68986,1,2,3,429,00:33:40,00:07:42,0.0,0.0,0.001234789397188856,0.0975,1.10125,0.15875,55.46633783,24.99525217
68987,1,2,3,430,00:33:41,00:07:43,0.0,0.0,0.0031540199955137137,0.14125,1.085,0.17125,55.46633783,24.99525217
68988,1,2,3,431,00:33:41,00:07:43,0.0,0.0,0.0035365424019177093,0.105,1.07875,0.15375,55.46633783,24.99525233
68989,1,2,3,432,00:33:41,00:07:43,0.0,0.0,0.003021530666908328,0.11125,1.09,0.1725,55.46633783,24.9952525
68990,1,2,3,433,00:33:41,00:07:43,0.0,0.0,0.002862102392515544,0.1475,1.04375,0.215,55.46633783,24.9952525
68991,1,2,3,434,00:33:41,00:07:43,0.0,0.0,0.003054286784761388,0.15875,1.0425,0.26,55.46633767,24.9952525
68992,1,2,3,435,00:33:41,00:07:43,0.0,0.0,0.0016633919736706605,0.07875,1.035,0.315,55.46633767,24.99525233
68993,1,2,3,436,00:33:41,00:07:43,0.0,0.0,0.0023552418913555862,0.0475,1.03875,0.35625,55.4663375,24.99525233
68994,1,2,3,437,00:33:41,00:07:43,0.0,0.0,0.002304630499674648,0.11125,1.0075,0.32875,55.4663375,24.99525217
68995,1,2,3,438,00:33:41,00:07:43,0.0,0.0,0.0020906247894365393,0.22,1.0025,0.3125,55.4663375,24.99525217
68996,1,2,3,439,00:33:41,00:07:43,0.0,0.0,0.0019539432180225675,0.1975,1.04125,0.2575,55.4663375,24.995252
68997,1,2,3,440,00:33:42,00:07:44,0.0,0.0,0.002156576045277191,0.15625,1.095,0.21625,55.4663375,24.995252
68998,1,2,3,441,00:33:42,00:07:44,0.0,0.0,0.002340996096292053,0.1375,1.09375,0.23,55.46633767,24.99525183
68999,1,2,3,442,00:33:42,00:07:44,0.0,0.0,0.002912638385882041,0.28375,1.00625,0.24125,55.46633767,24.99525183
69000,1,2,3,443,00:33:42,00:07:44,0.0,0.0,0.005218742183278571,0.33625,0.90125,0.295,55.46633767,24.99525167
69001,1,2,3,444,00:33:42,00:07:44,0.0,0.0,0.010056196352677462,0.1825,1.14,0.40625,55.4663375,24.995251500000002
69002,1,2,3,445,00:33:42,00:07:44,0.0,0.0,0.0037077584553836546,0.2,0.87875,0.435,55.46633717,24.995251500000002
69003,1,2,3,446,00:33:42,00:07:44,0.30000024,3.0000023999999996,0.002391540619700025,0.22375,0.92,0.4975,55.466337,24.995251500000002
69004,1,2,3,447,00:33:42,00:07:44,0.0,3.0000023999999996,0.00204563227274897,0.255,0.89,0.535,55.46633667,24.99525133
69005,1,2,3,448,00:33:42,00:07:44,0.0,0.0,0.0019473099934093922,0.2475,0.9025,0.5075,55.4663365,24.99525133
69006,1,2,3,449,00:33:42,00:07:44,0.0,0.0,0.0017808172000314312,0.2225,0.905,0.5125,55.4663365,24.99525117
69007,1,2,3,450,00:33:43,00:07:45,0.0,0.0,0.0015040767359143312,0.22125,0.9075,0.5025,55.4663365,24.99525117
69008,1,2,3,451,00:33:43,00:07:45,0.0,0.0,0.002176039164095802,0.17875000000000002,0.93875,0.47875,55.46633633,24.99525117
69009,1,2,3,452,00:33:43,00:07:45,0.0,0.0,0.001725814198114139,0.16625,0.91375,0.5337500000000001,55.46633633,24.99525117
69010,1,2,3,453,00:33:43,00:07:45,0.0,0.0,0.0012329629131445346,0.215,0.90875,0.535,55.46633633,24.99525117
69011,1,2,3,454,00:33:43,00:07:45,0.0,0.0,0.001948888739433604,0.2125,0.91375,0.52875,55.46633633,24.99525117
69012,1,2,3,455,00:33:43,00:07:45,0.0,0.0,0.0022546976365170807,0.24,0.895,0.53625,55.46633633,24.995251
69013,1,2,3,456,00:33:43,00:07:45,0.0,0.0,0.0025925961563611944,0.23,0.91875,0.5237499999999999,55.46633633,24.995251
69014,1,2,3,457,00:33:43,00:07:45,0.0,0.0,0.0019094068218042449,0.19125,0.9025,0.53375,55.4663365,24.995251
69015,1,2,3,458,00:33:43,00:07:45,0.0,0.0,0.001782800690619545,0.15875,0.8875,0.54125,55.4663365,24.995251
69016,1,2,3,459,00:33:43,00:07:45,0.0,0.0,0.003520460027779588,0.09,0.90375,0.5599999999999999,55.4663365,24.995251
69017,1,2,3,460,00:33:44,00:07:46,0.0,0.0,0.003190204563517866,0.225,0.94125,0.48125,55.4663365,24.995251
69018,1,2,3,461,00:33:44,00:07:46,0.0,0.0,0.0027581776950667486,0.2925,0.9375,0.43,55.4663365,24.99525083
69019,1,2,3,462,00:33:44,00:07:46,0.0,0.0,0.0036549637161446295,0.26375,0.94,0.4475,55.4663365,24.99525067
69020,1,2,3,463,00:33:44,00:07:46,0.0,0.0,0.003694141669204473,0.24,0.93375,0.48,55.46633667,24.99525067
69021,1,2,3,464,00:33:44,00:07:46,0.0,0.0,0.002255252382078361,0.18125,0.8975,0.52625,55.4663365,24.99525067
69022,1,2,3,465,00:33:44,00:07:46,0.0,0.0,0.0019420788821556945,0.16375,0.855,0.6025,55.46633633,24.9952505
69023,1,2,3,466,00:33:44,00:07:46,0.0,0.0,0.0037449514539829743,0.1525,0.7025,0.51625,55.46633617,24.9952505
69024,1,2,3,467,00:33:44,00:07:46,0.0,0.0,0.006450981351141892,0.32,0.915,0.4825,55.46633583,24.99525033
69025,1,2,3,468,00:33:44,00:07:46,0.0,0.0,0.004859238336824267,0.33,0.92625,0.4125,55.46633567,24.99525017
69026,1,2,3,469,00:33:44,00:07:46,0.30277802,3.0277802000000005,0.009745072577755394,0.28,0.9625,0.27125,55.4663355,24.99524983
69027,1,2,3,470,00:33:45,00:07:47,0.30277802,3.0277802000000005,0.024358143453090127,-0.07,1.27625,0.35375,55.4663355,24.99524983
69028,1,2,3,471,00:33:45,00:07:47,0.8611118000000001,2.5833353999999997,0.024089019191897786,-0.075,1.83625,0.6275,55.46633383,24.9952495
69029,1,2,3,472,00:33:45,00:07:47,1.3055566,4.444448,0.028795979472217056,-0.225,0.4,0.41,55.46633249999999,24.99524917
69030,1,2,3,473,00:33:45,00:07:47,1.62777908,3.2222248,0.02896089349285823,0.28125,0.96,0.725,55.466331000000004,24.99524833
69031,1,2,3,474,00:33:45,00:07:47,2.1666684,5.3888932,0.015439619772222912,0.54375,1.41125,0.79625,55.466329,24.995247
69032,1,2,3,475,00:33:45,00:07:47,2.14444616,0.22222240000000001,0.023150013386538854,0.23875,0.30875,0.29875,55.46632733,24.99524583
69033,1,2,3,476,00:33:45,00:07:47,2.4305575,2.8611134,0.06298218128470245,-0.0037500000000000038,0.7412500000000001,0.81625,55.46632517,24.995244500000002
69034,1,2,3,477,00:33:45,00:07:47,2.99444684,5.6388934,0.03612874374866947,-0.033749999999999995,1.465,1.0375,55.4663225,24.995243
69035,1,2,3,478,00:33:45,00:07:47,2.90000232,0.9444452,0.02236693338584469,-0.1375,0.495,0.13874999999999998,55.466319999999996,24.99524183
69036,1,2,3,479,00:33:45,00:07:47,2.5416687000000002,3.5833362,0.04058513673019335,-0.16625,0.33375,0.43,55.46631783,24.99524067
69037,1,2,3,480,00:33:46,00:07:48,2.5416687000000002,3.5833362,0.034629909232273576,0.54125,1.79,0.8625,55.46631783,24.99524067
69038,1,2,3,481,00:33:46,00:07:48,3.10555804,3.1388914,0.01883523669162674,0.1725,1.10625,0.29875,55.46631283,24.9952375
69039,1,2,3,482,00:33:46,00:07:48,3.14444696,0.38888920000000005,0.025730049606969063,0.3125,-0.21125,0.16,55.4663105,24.99523567
69040,1,2,3,483,00:33:46,00:07:48,3.3750027,2.3055574,0.05857019540790394,0.017499999999999998,1.395,1.11375,55.46630749999999,24.99523417
69041,1,2,3,484,00:33:46,00:07:48,3.72778076,3.5277806000000003,0.018273688897964584,-0.06625,1.17375,0.39125,55.46630433,24.99523217
69042,1,2,3,485,00:33:46,00:07:48,3.4583361000000004,2.6944466,0.018649803893394917,-0.33875,-0.07375,0.0575,55.46630133,24.99523067
69043,1,2,3,486,00:33:46,00:07:48,3.34444712,1.1388898,0.09497172643211843,0.24125,1.58,0.8775,55.4662985,24.99522917
69044,1,2,3,487,00:33:46,00:07:48,3.7638919,4.1944478,0.020978169699767055,0.38,1.51625,0.57625,55.46629533,24.99522717
69045,1,2,3,488,00:33:46,00:07:48,3.57222508,1.9166682000000002,0.016204030824300747,0.28,0.2,-0.04,55.4662925,24.99522517
69046,1,2,3,489,00:33:46,00:07:48,3.43333608,1.38889,0.06302964018764616,0.09625,0.435,0.625,55.46628967,24.99522367
69047,1,2,3,490,00:33:47,00:07:49,3.43333608,1.38889,0.08535973404831658,-0.03375,2.485,0.9675,55.46628967,24.99522367
69048,1,2,3,491,00:33:47,00:07:49,3.61666956,0.138889,0.01851559753196031,-0.15,0.70375,0.2725,55.46628333,24.9952205
69049,1,2,3,492,00:33:47,00:07:49,3.1944470000000003,4.2222256,0.0176321270843915,-0.2825,-0.1275,0.03625,55.46628067,24.99521917
69050,1,2,3,493,00:33:47,00:07:49,3.26666928,0.7222228,0.08765739556178657,0.15625,1.82375,0.68375,55.46627783,24.99521783
69051,1,2,3,494,00:33:47,00:07:49,3.45000276,1.8333348000000003,0.023749753445044833,0.22375,1.47625,0.535,55.466275,24.99521583
69052,1,2,3,495,00:33:47,00:07:49,3.24722482,2.0277794,0.01937913413466829,0.295,0.13125,-0.03625,55.46627233,24.99521417
69053,1,2,3,496,00:33:47,00:07:49,3.3055582,0.5833338,0.07084576068821616,-0.11125,1.28125,0.69875,55.46626967,24.9952125
69054,1,2,3,497,00:33:47,00:07:49,3.55000284,2.4444464,0.07143741911021244,-0.13,1.59875,0.90125,55.46626683,24.995210500000002
69055,1,2,3,498,00:33:47,00:07:49,3.59166954,0.416667,0.015579732492848275,-0.175,0.62,0.15,55.46626383,24.99520883
69056,1,2,3,499,00:33:47,00:07:49,3.28333596,3.0833357999999995,0.021148622882531973,-0.10875,-0.05875,0.23125,55.46626133,24.99520683
69057,1,2,3,500,00:33:48,00:07:50,3.28333596,3.0833357999999995,0.07491500404119035,0.1825,2.05375,0.975,55.46626133,24.99520683
69058,1,2,3,501,00:33:48,00:07:50,3.5000028,1.9166682000000002,0.021663154992629184,0.165,1.42,0.36875,55.46625649999999,24.99520233
69059,1,2,3,502,00:33:48,00:07:50,3.22500258,2.7500022,0.02540782323702365,0.35375,-0.06875,-0.05875,55.466254500000005,24.99520033
69060,1,2,3,503,00:33:48,00:07:50,3.06111356,1.6388901999999999,0.08522248112806577,-0.155,1.5025,0.7000000000000001,55.46625267,24.99519817
69061,1,2,3,504,00:33:48,00:07:50,3.34444712,2.8333356,0.05425834784706029,-0.09125,1.63875,0.73625,55.4662505,24.99519567
69062,1,2,3,505,00:33:48,00:07:50,3.31666932,0.277778,0.017735169004472248,-0.20625,0.44125,0.09,55.46624833,24.9951935
69063,1,2,3,506,00:33:48,00:07:50,3.03889132,2.77778,0.02414389638983913,-0.145,0.06499999999999999,0.30125,55.46624667,24.99519133
69064,1,2,3,507,00:33:48,00:07:50,2.97778016,0.6111116,0.08468880292793166,0.10625,2.04,0.86125,55.466244999999994,24.995189
69065,1,2,3,508,00:33:48,00:07:50,3.16944698,1.9166682000000002,0.01789653189563051,0.2225,1.17,0.25125,55.466243500000004,24.9951865
69066,1,2,3,509,00:33:48,00:07:50,2.95555792,2.1388906000000003,0.02115727444157136,0.31125,-0.1275,-0.05125,55.46624233,24.99518417
69067,1,2,3,510,00:33:49,00:07:51,2.95555792,2.1388906000000003,0.08732645128622389,0.037499999999999985,1.61,0.81125,55.46624233,24.99518417
69068,1,2,3,511,00:33:49,00:07:51,3.10555804,2.9166689999999997,0.034459137771554266,-0.12,1.66,0.6125,55.46624033,24.995179
69069,1,2,3,512,00:33:49,00:07:51,3.02222464,0.833334,0.01676521989854414,-0.17125,0.40125,0.13125,55.466239,24.99517667
69070,1,2,3,513,00:33:49,00:07:51,2.73889108,2.8333356,0.025599306849479583,-0.12125,0.095,0.2075,55.4662385,24.99517433
69071,1,2,3,514,00:33:49,00:07:51,2.70277994,0.3611114,0.09507256995984796,0.0,2.19625,1.00625,55.46623817,24.995172
69072,1,2,3,515,00:33:49,00:07:51,2.91944678,2.1666684,0.020833390156621584,0.165,1.275,0.3425,55.46623783,24.99516933
69073,1,2,3,516,00:33:49,00:07:51,2.96666904,0.4722226,0.027229977711451626,0.18875,-0.1775,-0.04,55.4662375,24.99516667
69074,1,2,3,517,00:33:49,00:07:51,2.64166878,3.2500026,0.07404982872836073,-0.14875,1.70125,0.6425,55.46623817,24.995164499999998
69075,1,2,3,518,00:33:49,00:07:51,2.74444664,1.0277786,0.0413150962476731,-0.18875,1.42375,0.76125,55.4662385,24.995162
69076,1,2,3,519,00:33:49,00:07:51,2.6805577,0.6388894,0.020074823255034683,-0.15875,0.41,0.21125,55.4662385,24.99515967
69077,1,2,3,520,00:33:50,00:07:52,2.6805577,0.6388894,0.0294312778935132,-0.04625,0.17125,0.29375,55.4662385,24.99515967
69078,1,2,3,521,00:33:50,00:07:52,2.53889092,1.2777788,0.0639195353390315,-0.03,2.105,0.8875,55.46624083,24.99515567
69079,1,2,3,522,00:33:50,00:07:52,2.56111316,0.22222240000000001,0.01727057776713814,0.13125,1.3025,0.3425,55.466242,24.99515367
69080,1,2,3,523,00:33:50,00:07:52,2.61389098,0.5277782,0.02338822098288405,0.3425,-0.012499999999999995,-0.04875,55.46624333,24.99515167
69081,1,2,3,524,00:33:50,00:07:52,2.3888908,2.2500017999999997,0.06345849621035586,-0.05375,1.4275,0.7687499999999999,55.46624517,24.99515067
69082,1,2,3,525,00:33:50,00:07:52,2.53889092,1.5000011999999998,0.035356567064153174,-0.24375,1.72625,0.66125,55.466246999999996,24.99514917
69083,1,2,3,526,00:33:50,00:07:52,2.42500194,1.1388898,0.020417408609204768,-0.17625,0.3825,0.185,55.46624833,24.99514733
69084,1,2,3,527,00:33:50,00:07:52,2.40000192,0.2500002,0.03713220176747603,0.05125,0.715,0.46,55.4662505,24.99514633
69085,1,2,3,528,00:33:50,00:07:52,2.51944646,1.1944454,0.03456326762062357,0.20625,1.86375,0.92875,55.46625283,24.99514583
69086,1,2,3,529,00:33:50,00:07:52,2.47777976,0.416667,0.01763975948968956,0.2925,0.9675,0.30625,55.46625517,24.99514533
69087,1,2,3,530,00:33:51,00:07:53,2.47777976,0.416667,0.024580281282391484,0.335,-0.04625,0.0075000000000000015,55.46625517,24.99514533
69088,1,2,3,531,00:33:51,00:07:53,2.6527799,3.4444472000000004,0.051689894569329896,0.13375,1.54875,0.8875,55.46626017,24.995145
69089,1,2,3,532,00:33:51,00:07:53,2.54444648,1.0833342,0.017395182918516574,-0.13125,1.48125,0.50875,55.4662625,24.99514483
69090,1,2,3,533,00:33:51,00:07:53,2.21389066,3.3055582,0.019611204708155947,-0.20625,0.01875,0.22625,55.4662645,24.99514433
69091,1,2,3,534,00:33:51,00:07:53,2.41389082,2.0000016,0.0474799600733967,0.34,1.3125,0.53,55.46626683,24.99514483
69092,1,2,3,535,00:33:51,00:07:53,2.94722458,5.333337599999999,0.01806565106607681,0.37125,1.625,0.68625,55.466269999999994,24.99514567
69093,1,2,3,536,00:33:51,00:07:53,2.57500206,3.7222252,0.019571009756568225,0.37625,0.34125,0.13375,55.46627233,24.99514617
69094,1,2,3,537,00:33:51,00:07:53,2.78611334,2.1111128,0.03732624089909265,0.09875,0.34375,0.2875,55.466275,24.995147
69095,1,2,3,538,00:33:51,00:07:53,2.82222448,0.3611114,0.036924887243683736,-0.11,1.78125,0.865,55.466277500000004,24.99514783
69096,1,2,3,539,00:33:51,00:07:53,2.53333536,2.8888912,0.017353971922337355,-0.15375,1.13625,0.38,55.46627983,24.9951485
69097,1,2,3,540,00:33:52,00:07:54,2.53333536,2.8888912,0.026191094345601254,-0.07375,-0.115,0.5549999999999999,55.46627983,24.9951485
69098,1,2,3,541,00:33:52,00:07:54,3.04444688,5.4444488,0.07102460433563766,0.63875,1.71875,0.70875,55.466285,24.9951505
69099,1,2,3,542,00:33:52,00:07:54,3.17778032,1.3333343999999998,0.019399792253585547,0.45,1.1275,0.4775,55.46628783,24.99515183
69100,1,2,3,543,00:33:52,00:07:54,2.83889116,3.3888915999999996,0.014674414848024803,0.2525,-0.16625,0.06875,55.46629,24.99515333
69101,1,2,3,544,00:33:52,00:07:54,3.24444704,4.0555588,0.06844648063614774,0.23375,1.61375,0.59,55.46629300000001,24.99515467
69102,1,2,3,545,00:33:52,00:07:54,3.18333588,0.6111116,0.041319063474482366,0.13875,1.4575,0.605,55.46629567,24.995156
69103,1,2,3,546,00:33:52,00:07:54,2.72500218,4.583337,0.021186260650781368,-0.10625,0.455,0.16875,55.46629817,24.995157
69104,1,2,3,547,00:33:52,00:07:54,2.92222456,1.9722238,0.03687449853480085,0.13875,0.23625,0.42875,55.46630067,24.99515833
69105,1,2,3,548,00:33:52,00:07:54,3.21944702,2.9722246,0.06107210901650517,0.74375,2.2775,0.62375,55.4663035,24.99515967
69106,1,2,3,549,00:33:52,00:07:54,3.1527803,0.6666671999999999,0.01642197184346334,0.3575,0.97375,0.21375,55.46630633,24.99516117
69107,1,2,3,550,00:33:53,00:07:55,3.1527803,0.6666671999999999,0.0254952193345384,0.24625,-0.2075,0.04,55.46630633,24.99516117
69108,1,2,3,551,00:33:53,00:07:55,3.18611366,2.4722242000000003,0.08755177549189166,0.28875,1.83375,0.53,55.466311499999996,24.99516367
69109,1,2,3,552,00:33:53,00:07:55,3.0277802000000005,1.5833346000000001,0.0338737176537585,0.14125,1.6225,0.5575,55.46631433,24.99516483
69110,1,2,3,553,00:33:53,00:07:55,2.60555764,4.2222256,0.02031406201475933,-0.135,0.39625,0.12375,55.46631667,24.9951655
69111,1,2,3,554,00:33:53,00:07:55,2.89166898,2.8611134,0.029759747822496064,0.2075,0.25375000000000003,0.3275,55.46631933,24.99516667
69112,1,2,3,555,00:33:53,00:07:55,3.15833586,2.6666687999999996,0.056578063235594986,0.39125,2.17375,0.70375,55.46632233,24.995167499999997
69113,1,2,3,556,00:33:53,00:07:55,2.93333568,2.2500017999999997,0.015930584216716587,0.27875,1.0625,0.1675,55.466325,24.99516867
69114,1,2,3,557,00:33:53,00:07:55,2.8611134,0.7222228,0.02472206365947651,0.3,-0.05375,-0.07250000000000001,55.46632767,24.99516967
69115,1,2,3,558,00:33:53,00:07:55,2.97500238,1.1388898,0.07264103205938717,0.23625,1.51625,0.69875,55.46633017,24.99517067
69116,1,2,3,559,00:33:53,00:07:55,2.91111344,0.6388894,0.021673014908081087,-0.06625,1.645,0.56625,55.46633283,24.995171499999998
69117,1,2,3,560,00:33:54,00:07:56,2.91111344,0.6388894,0.01946241858475481,-0.15875,0.31625,0.18,55.46633283,24.995171499999998
69118,1,2,3,561,00:33:54,00:07:56,2.94166902,3.888892,0.04906864430967326,0.28500000000000003,0.8099999999999999,0.3975,55.466338,24.995173
69119,1,2,3,562,00:33:54,00:07:56,3.18333588,2.4166686,0.03784052023159883,0.52125,1.8975,0.78375,55.46634083,24.99517433
69120,1,2,3,563,00:33:54,00:07:56,3.12778028,0.555556,0.01667671385629281,0.31875,0.66,0.16375,55.46634399999999,24.99517533
69121,1,2,3,564,00:33:54,00:07:56,2.90000232,2.2777796,0.02301494953358071,0.245,-0.225,0.04125,55.4663465,24.99517633
69122,1,2,3,565,00:33:54,00:07:56,3.30833598,4.0833366,0.1052517954111478,0.50875,1.8275,0.985,55.46634933,24.99517767
69123,1,2,3,566,00:33:54,00:07:56,3.03333576,2.7500022,0.03501368770326168,-0.01875,1.45125,0.4975,55.46635217,24.99517867
69124,1,2,3,567,00:33:54,00:07:56,2.64444656,3.888892,0.017027012442275374,-0.13125,-0.135,0.19125,55.4663545,24.99517967
69125,1,2,3,568,00:33:54,00:07:56,3.02222464,3.7777808,0.059947622994497636,0.2625,0.96,0.4,55.46635717,24.99518117
69126,1,2,3,569,00:33:54,00:07:56,3.05278022,0.3055558,0.05165870173204504,0.46875,2.0075,0.47125,55.46635983,24.995182500000002
69127,1,2,3,570,00:33:55,00:07:57,3.05278022,0.3055558,0.019955939855699344,0.25875,0.4775,0.15125,55.46635983,24.995182500000002
69128,1,2,3,571,00:33:55,00:07:57,2.87222452,0.8055561999999998,0.032520437761637724,0.32875,0.2025,0.1225,55.46636467,24.99518533
69129,1,2,3,572,00:33:55,00:07:57,3.05833578,1.8611126,0.06800803410301086,0.20375,2.205,0.69125,55.46636717,24.99518683
69130,1,2,3,573,00:33:55,00:07:57,2.6944466,3.6388917999999997,0.015079245290996452,-0.09,1.245,0.3175,55.46636949999999,24.995188
69131,1,2,3,574,00:33:55,00:07:57,2.46389086,2.3055574,0.01870205715508493,-0.24,0.10125,0.22,55.46637167,24.995189
69132,1,2,3,575,00:33:55,00:07:57,2.79722446,3.333336,0.06574209020293388,0.415,1.6075,0.285,55.46637383,24.99519067
69133,1,2,3,576,00:33:55,00:07:57,3.00833574,2.1111128,0.03043545583512995,0.405,1.65375,0.13,55.46637633,24.99519233
69134,1,2,3,577,00:33:55,00:07:57,2.80833558,2.0000016,0.018718207130260633,0.47875,0.03625,0.025,55.466378500000005,24.99519383
69135,1,2,3,578,00:33:55,00:07:57,3.15555808,3.472225,0.048957655768534364,0.26625,1.08625,0.17375,55.46638117,24.99519567
69136,1,2,3,579,00:33:55,00:07:57,3.11944694,0.3611114,0.053252512331320265,0.08375000000000002,1.915,0.62875,55.46638367,24.995197
69137,1,2,3,580,00:33:56,00:07:58,3.11944694,0.3611114,0.01871405138786935,-0.09625,0.84625,0.29875,55.46638367,24.995197
69138,1,2,3,581,00:33:56,00:07:58,2.48333532,0.16666679999999998,0.02542445696143384,-0.0012500000000000067,-0.007500000000000005,0.40875,55.46638783,24.99519933
69139,1,2,3,582,00:33:56,00:07:58,2.96389126,4.805559400000001,0.08102236702540172,0.67125,2.085,0.5275,55.46639017,24.995201
69140,1,2,3,583,00:33:56,00:07:58,3.04444688,0.8055561999999998,0.019240061376762527,0.41,0.98375,0.15625,55.46639267,24.99520267
69141,1,2,3,584,00:33:56,00:07:58,2.55833538,4.861115,0.012662907182679308,0.225,-0.2275,0.1175,55.46639449999999,24.995204
69142,1,2,3,585,00:33:56,00:07:58,2.95278014,3.9444476,0.07798766205617283,0.33125,1.95625,0.31125,55.466397,24.9952055
69143,1,2,3,586,00:33:56,00:07:58,2.88055786,0.7222228,0.06987660763946607,0.27375,1.6625,0.505,55.4663995,24.995206500000002
69144,1,2,3,587,00:33:56,00:07:58,2.31111296,5.694449,0.016432675933686032,-0.1925,0.8175,0.16375,55.46640167,24.99520733
69145,1,2,3,588,00:33:56,00:07:58,2.39166858,0.8055561999999998,0.02521278684325705,-0.16,-0.061249999999999985,0.295,55.46640383,24.99520817
69146,1,2,3,589,00:33:56,00:07:58,2.5138909,1.2222232,0.10543000556557484,0.71,1.82625,0.68,55.46640583,24.99520917
69147,1,2,3,590,00:33:57,00:07:59,2.5138909,1.2222232,0.01900126344765577,0.50625,1.275,0.1925,55.46640583,24.99520917
69148,1,2,3,591,00:33:57,00:07:59,2.44166862,2.9722246,0.013096466878568249,0.32125,-0.05124999999999999,0.03375,55.46641067,24.99521117
69149,1,2,3,592,00:33:57,00:07:59,2.50833534,0.6666671999999999,0.05036123117957297,0.2425,0.93875,0.2925,55.46641283,24.99521183
69150,1,2,3,593,00:33:57,00:07:59,2.60555764,0.972223,0.07140848093518493,0.16249999999999998,2.27,0.595,55.466415500000004,24.995212
69151,1,2,3,594,00:33:57,00:07:59,1.91944598,0.0,0.016537077649973128,-0.017499999999999998,1.00875,0.30625,55.46641717,24.99521217
69152,1,2,3,595,00:33:57,00:07:59,1.92777932,0.08333339999999999,0.02253133751520333,-0.0575,-0.02625000000000001,0.2225,55.466418999999995,24.99521217
69153,1,2,3,596,00:33:57,00:07:59,2.17222396,2.4444464,0.05956640573982671,0.33,1.57375,0.40625,55.466421,24.99521233
69154,1,2,3,597,00:33:57,00:07:59,2.222224,0.5000004,0.02107307837995747,0.1175,1.46625,0.3925,55.46642333,24.99521233
69155,1,2,3,598,00:33:57,00:07:59,1.73055694,4.9166706,0.012035369632898623,0.315,0.6224999999999999,0.07625,55.46642483,24.99521233
69156,1,2,3,599,00:33:57,00:07:59,1.97777936,2.4722242000000003,0.04336197586779468,0.29,0.56125,0.275,55.46642667,24.99521233
69157,1,2,3,600,00:33:58,00:08:00,1.97777936,2.4722242000000003,0.06140215429779317,0.2025,1.8675,0.59,55.46642667,24.99521233
69158,1,2,3,601,00:33:58,00:08:00,1.78889032,1.8888904,0.013041512381676277,-0.01875,0.875,0.18125,55.46643050000001,24.99521183
69159,1,2,3,602,00:33:58,00:08:00,1.6527791,1.3611122,0.008343552523774155,-0.06,0.68625,0.275,55.466432,24.9952115
69160,1,2,3,603,00:33:58,00:08:00,1.62222352,0.3055558,0.019311331156189503,0.04,0.92875,0.285,55.46643333,24.9952115
69161,1,2,3,604,00:33:58,00:08:00,1.65000132,0.277778,0.02429059451757305,0.1575,1.6825,0.58,55.466435,24.99521117
69162,1,2,3,605,00:33:58,00:08:00,1.58889016,0.6111116,0.008190944972340306,0.14125,0.895,0.23,55.46643667,24.995210999999998
69163,1,2,3,606,00:33:58,00:08:00,1.51944566,0.694445,0.004050581704168839,0.09,0.74,0.13625,55.46643817,24.995210999999998
69164,1,2,3,607,00:33:58,00:08:00,1.5138901000000002,0.055555600000000004,0.007211026372345425,0.245,0.88125,0.28,55.4664395,24.995210999999998
69165,1,2,3,608,00:33:58,00:08:00,1.51111232,0.027777800000000002,0.01243625105373129,0.215,1.41125,0.4225,55.466441,24.995210999999998
69166,1,2,3,609,00:33:58,00:08:00,1.4861123,0.2500002,0.010250184726157288,0.30125,1.095,0.4975,55.46644233,24.995210999999998
69167,1,2,3,610,00:33:59,00:08:01,1.4861123,0.2500002,0.004874381102662979,-0.02875,0.79875,0.14375000000000002,55.46644233,24.995210999999998
69168,1,2,3,611,00:33:59,00:08:01,1.3194455,0.027777800000000002,0.0046185488961821355,-0.05125,0.92,0.225,55.46644483,24.995210999999998
69169,1,2,3,612,00:33:59,00:08:01,1.20555652,1.1388898,0.00568562022255316,-0.0325,0.9925,0.28875,55.466446,24.99521083
69170,1,2,3,613,00:33:59,00:08:01,1.26666768,0.6111116,0.016217733883728942,0.17875,1.42,0.4725,55.46644717,24.995210999999998
69171,1,2,3,614,00:33:59,00:08:01,1.40000112,1.3333343999999998,0.007774276088304463,0.20375,1.1025,0.44375,55.46644867,24.995210999999998
69172,1,2,3,615,00:33:59,00:08:01,1.3750011,0.2500002,0.003600069659982885,0.18625,0.79125,0.175,55.46645,24.99521117
69173,1,2,3,616,00:33:59,00:08:01,1.53333456,1.5833346000000001,0.002810637084071197,0.1325,0.825,0.1525,55.4664515,24.9952115
69174,1,2,3,617,00:33:59,00:08:01,1.38055666,1.527779,0.005668564624617696,0.1175,1.08,0.23625,55.46645267,24.99521167
69175,1,2,3,618,00:33:59,00:08:01,1.26666768,1.1388898,0.012702834742454108,0.20375,1.41,0.42,55.466454000000006,24.99521167
69176,1,2,3,619,00:33:59,00:08:01,1.20000096,0.6666671999999999,0.00596792266617824,0.25125,0.97875,0.425,55.466455,24.99521167
69177,1,2,3,620,00:34:00,00:08:02,1.20000096,0.6666671999999999,0.004344782033967486,-0.013750000000000002,0.86125,0.30375,55.466455,24.99521167
69178,1,2,3,621,00:34:00,00:08:02,1.38611222,0.9166674000000001,0.004930487923794474,-0.03625,0.905,0.24375,55.46645767,24.99521183
69179,1,2,3,622,00:34:00,00:08:02,1.14722314,2.3888908,0.005044676383723661,-0.03125,0.94625,0.34625,55.46645867,24.99521167
69180,1,2,3,623,00:34:00,00:08:02,1.20555652,0.5833338,0.016868302200109327,0.27625,1.44625,0.55625,55.46646,24.995212
69181,1,2,3,624,00:34:00,00:08:02,1.35277886,1.4722233999999998,0.007532190876437645,0.19625,1.005,0.5375,55.46646133,24.99521217
69182,1,2,3,625,00:34:00,00:08:02,1.33888996,0.138889,0.004004870949947218,0.1925,0.77625,0.23625,55.4664625,24.99521233
69183,1,2,3,626,00:34:00,00:08:02,1.3472233,0.08333339999999999,0.002748689470688436,0.19375,0.815,0.22375,55.46646383,24.99521267
69184,1,2,3,627,00:34:00,00:08:02,1.27500102,0.7222228,0.00555508805224719,0.22,0.9375,0.27625,55.46646483,24.99521317
69185,1,2,3,628,00:34:00,00:08:02,1.1388898,1.3611122,0.018933320506388417,0.12625,1.32,0.5125,55.466466000000004,24.99521333
69186,1,2,3,629,00:34:00,00:08:02,1.12222312,0.16666679999999998,0.0059486509095723495,0.1275,1.12375,0.485,55.466467,24.995213500000002
69187,1,2,3,630,00:34:01,00:08:03,1.12222312,0.16666679999999998,0.003445373753910325,-0.0275,1.0325,0.35125,55.466467,24.995213500000002
69188,1,2,3,631,00:34:01,00:08:03,1.0694453000000002,0.9444452,0.003997775288255213,-0.0275,0.77625,0.3775,55.46646883,24.995214
69189,1,2,3,632,00:34:01,00:08:03,1.11388978,0.44444480000000003,0.012124639182249805,0.0925,1.0825,0.32375,55.46646983,24.99521433
69190,1,2,3,633,00:34:01,00:08:03,1.08611198,0.277778,0.005380312066644025,0.54625,1.1225,0.32875,55.46647083,24.99521483
69191,1,2,3,634,00:34:01,00:08:03,1.14444536,0.5833338,0.004143899957210239,0.59625,0.92125,0.3175,55.46647183,24.9952155
69192,1,2,3,635,00:34:01,00:08:03,1.07222308,0.7222228,0.003543185491641935,0.3725,0.89875,0.27125,55.466472499999995,24.995216
69193,1,2,3,636,00:34:01,00:08:03,0.6388894,4.3333368,0.004112693483436629,0.30875,0.94375,0.24375,55.46647283,24.9952165
69194,1,2,3,637,00:34:01,00:08:03,0.35277806,2.8611134,0.003000838263518225,0.17125,1.05875,0.23875,55.46647283,24.99521683
69195,1,2,3,638,00:34:01,00:08:03,0.32500026,0.277778,0.002862163806884144,0.22125,0.94375,0.17625,55.46647267,24.99521717
69196,1,2,3,639,00:34:01,00:08:03,0.36388918,0.38888920000000005,0.013360837507410413,0.105,1.20375,0.26375,55.46647233,24.99521733
69197,1,2,3,640,00:34:02,00:08:04,0.36388918,0.38888920000000005,0.0059405019379441615,0.08375,1.145,0.21875,55.46647233,24.99521733
69198,1,2,3,641,00:34:02,00:08:04,0.67500054,2.4166686,0.006381363432487615,-0.13875,1.1,0.24125,55.466471,24.99521767
69199,1,2,3,642,00:34:02,00:08:04,0.83888956,1.6388901999999999,0.003548165070880032,-0.1025,1.01125,0.1925,55.46647017,24.995217999999998
69200,1,2,3,643,00:34:02,00:08:04,0.8611118000000001,0.22222240000000001,0.0041419851671015894,-0.05875,1.01625,0.15875,55.46646917,24.99521817
69201,1,2,3,644,00:34:02,00:08:04,0.82222288,0.38888920000000005,0.002747860355439685,-0.08499999999999999,0.99375,0.24875,55.46646833,24.995217999999998
69202,1,2,3,645,00:34:02,00:08:04,0.76944506,0.5277782,0.011532963534408584,0.04875,1.3525,0.43625,55.46646767,24.99521783
69203,1,2,3,646,00:34:02,00:08:04,0.86944514,1.0000008,0.010900255989349579,0.14,1.0475,0.41375,55.46646683,24.9952175
69204,1,2,3,647,00:34:02,00:08:04,0.78333396,0.8611118000000001,0.004437938246244546,0.2275,0.985,0.2875,55.46646617,24.995217
69205,1,2,3,648,00:34:02,00:08:04,0.83611178,0.5277782,0.002530270113082777,0.19,0.91125,0.195,55.466465500000005,24.9952165
69206,1,2,3,649,00:34:02,00:08:04,0.66388942,1.7222236000000002,0.0028743595025358237,0.225,0.99375,0.18625,55.466465,24.99521617
69207,1,2,3,650,00:34:03,00:08:05,0.66388942,1.7222236000000002,0.005128443443726633,0.145,1.02875,0.1975,55.466465,24.99521617
69208,1,2,3,651,00:34:03,00:08:05,0.82500066,1.111112,0.0030672807057848463,0.05125,1.235,0.235,55.46646367,24.995216
69209,1,2,3,652,00:34:03,00:08:05,0.81388954,0.11111120000000001,0.003059759151952445,0.017499999999999998,1.09625,0.2025,55.466463,24.995216
69210,1,2,3,653,00:34:03,00:08:05,0.82500066,0.11111120000000001,0.003941172814365226,-0.02875,1.11875,0.26125,55.46646217,24.995216
69211,1,2,3,654,00:34:03,00:08:05,0.86388958,0.38888920000000005,0.003819143094659067,-0.0125,1.0075,0.2525,55.46646133,24.995216
69212,1,2,3,655,00:34:03,00:08:05,0.81111176,0.5277782,0.006837763330936352,-0.052500000000000005,0.79875,0.3925,55.4664605,24.99521583
69213,1,2,3,656,00:34:03,00:08:05,0.81666732,0.055555600000000004,0.010719418087895631,0.15125,1.35,0.43,55.46645967,24.99521567
69214,1,2,3,657,00:34:03,00:08:05,0.7916673000000001,0.2500002,0.008082328815894824,0.20375,0.9175,0.50875,55.46645899999999,24.99521533
69215,1,2,3,658,00:34:03,00:08:05,0.68611166,1.0555564,0.004345960976827834,0.28875,0.84875,0.50375,55.466458499999995,24.995214999999998
69216,1,2,3,659,00:34:03,00:08:05,0.5416671,1.4444456,0.004108678563514273,0.3225,0.8825,0.4925,55.46645817,24.99521483
69217,1,2,3,660,00:34:04,00:08:06,0.5416671,1.4444456,0.0025195679261449827,0.2575,0.9175,0.38,55.46645817,24.99521483
69218,1,2,3,661,00:34:04,00:08:06,0.31388914,1.1388898,0.0027174491966232947,0.25875000000000004,0.94,0.3275,55.46645767,24.99521467
69219,1,2,3,662,00:34:04,00:08:06,0.39722254,0.833334,0.003297473762089643,0.2,1.17875,0.295,55.4664575,24.995214999999998
69220,1,2,3,663,00:34:04,00:08:06,0.57500046,1.7777792000000001,0.005264142242837239,0.02375,1.11,0.35250000000000004,55.46645733,24.9952155
69221,1,2,3,664,00:34:04,00:08:06,0.8194450999999999,2.4444464,0.00752006938397975,-0.15875,0.9925,0.5025000000000001,55.466457,24.99521633
69222,1,2,3,665,00:34:04,00:08:06,0.96388966,1.4444456,0.004752239329783865,-0.13,0.81375,0.255,55.46645649999999,24.99521717
69223,1,2,3,666,00:34:04,00:08:06,1.00277858,0.38888920000000005,0.002992288931002748,-0.045,1.0375,0.215,55.46645633,24.995217999999998
69224,1,2,3,667,00:34:04,00:08:06,0.9444452,0.5833338,0.005461483428867594,0.01,1.3125,0.21,55.46645649999999,24.995219
69225,1,2,3,668,00:34:04,00:08:06,0.93611186,0.08333339999999999,0.010525256406370007,0.16125,1.275,0.1525,55.46645667,24.99521983
69226,1,2,3,669,00:34:04,00:08:06,0.96666744,0.3055558,0.007095060564120578,0.07,1.12,0.22625,55.466457,24.99522083
69227,1,2,3,670,00:34:05,00:08:07,0.96666744,0.3055558,0.003039089158185297,0.14625,0.765,0.15875,55.466457,24.99522083
69228,1,2,3,671,00:34:05,00:08:07,0.91388962,1.38889,0.004632982089517019,0.25125,0.91125,0.2425,55.46645733,24.9952225
69229,1,2,3,672,00:34:05,00:08:07,1.08888976,1.7500014,0.00506268888212835,0.175,1.15625,0.35125,55.46645783,24.995223499999998
69230,1,2,3,673,00:34:05,00:08:07,0.87777848,2.1111128,0.007477994704691831,0.01125,1.2175,0.33875,55.466457999999996,24.99522433
69231,1,2,3,674,00:34:05,00:08:07,1.11944534,2.4166686,0.01281519416935772,0.0275,1.1625,0.31625,55.466457999999996,24.9952255
69232,1,2,3,675,00:34:05,00:08:07,1.25555656,1.3611122,0.003036408483082543,-0.135,0.7224999999999999,0.24125,55.46645817,24.99522667
69233,1,2,3,676,00:34:05,00:08:07,1.30833438,0.5277782,0.0049080975416001035,-0.06625,0.91125,0.22375,55.466458499999995,24.99522783
69234,1,2,3,677,00:34:05,00:08:07,1.18333428,1.250001,0.003356072298111293,0.07375,1.08375,0.305,55.46645867,24.99522883
69235,1,2,3,678,00:34:05,00:08:07,0.85277846,3.3055582,0.009337053939655856,0.2075,1.3275,0.29875,55.46645899999999,24.9952295
69236,1,2,3,679,00:34:05,00:08:07,1.03333416,1.805557,0.01803381257736476,0.2625,1.27375,0.27875,55.4664595,24.995230499999998
69237,1,2,3,680,00:34:06,00:08:08,1.03333416,1.805557,0.0048116842561685405,0.125,0.685,0.22125,55.4664595,24.995230499999998
69238,1,2,3,681,00:34:06,00:08:08,1.15000092,0.5277782,0.005537051488218707,0.37625,0.7625,0.25375,55.46646017,24.9952325
69239,1,2,3,682,00:34:06,00:08:08,0.99166746,1.5833346000000001,0.005370373512358384,0.28,1.01,0.21,55.46646033,24.99523333
69240,1,2,3,683,00:34:06,00:08:08,1.05277862,0.6111116,0.005503666863739496,-0.0012500000000000007,1.2,0.20375,55.46646033,24.9952345
69241,1,2,3,684,00:34:06,00:08:08,1.31388994,2.6111132,0.010522828645174662,0.28625,1.4075,0.23625,55.46646017,24.99523583
69242,1,2,3,685,00:34:06,00:08:08,1.3611122,0.4722226,0.008989722831566084,0.16375,1.18,0.21125,55.46646,24.995237
69243,1,2,3,686,00:34:06,00:08:08,1.05833418,3.0277802000000005,0.004904437787401419,0.08625000000000001,0.6475,0.04125,55.46645983,24.995238
69244,1,2,3,687,00:34:06,00:08:08,1.2638899,2.0555572,0.0062279620613640155,0.02125,0.9925,0.15625,55.46645917,24.99523883
69245,1,2,3,688,00:34:06,00:08:08,1.24722322,0.16666679999999998,0.01045444394710372,0.0725,1.13625,0.4975,55.46645833,24.99523967
69246,1,2,3,689,00:34:06,00:08:08,1.250001,0.027777800000000002,0.015016097213921175,0.19875,1.0,0.5125,55.46645733,24.99524033
69247,1,2,3,690,00:34:07,00:08:09,1.250001,0.027777800000000002,0.013618667723708492,0.68875,1.615,0.42625,55.46645733,24.99524033
69248,1,2,3,691,00:34:07,00:08:09,1.53889012,1.7500014,0.0173771761553346,0.51375,0.89125,0.47875,55.46645467,24.995241500000002
69249,1,2,3,692,00:34:07,00:08:09,1.74166806,2.0277794,0.034604905638293215,0.1325,0.3325,0.4725,55.466453,24.995242
69250,1,2,3,693,00:34:07,00:08:09,2.60277986,0.0,0.034383874986973144,-0.4425,1.795,0.9125,55.4664505,24.99524283
69251,1,2,3,694,00:34:07,00:08:09,2.81666892,2.1388906000000003,0.029576704009780564,-0.23625,0.74375,0.52125,55.46644783,24.99524383
69252,1,2,3,695,00:34:07,00:08:09,2.72500218,0.9166674000000001,0.058985636131626974,-0.12,1.0825,1.225,55.46644533,24.995244500000002
69253,1,2,3,696,00:34:07,00:08:09,3.37778048,0.0,0.026193501747652958,0.1925,0.9375,1.18125,55.46644183,24.995244500000002
69254,1,2,3,697,00:34:07,00:08:09,3.2083359000000002,1.6944457999999998,0.018717036559030013,-0.012499999999999995,0.001249999999999991,0.18625,55.46643883,24.995244500000002
69255,1,2,3,698,00:34:07,00:08:09,2.9166689999999997,2.9166689999999997,0.01576067211885176,0.09,-0.34125,0.14625,55.466436,24.995244500000002
69256,1,2,3,699,00:34:07,00:08:09,3.19166922,2.7500022,0.1887378555000793,-0.3675,2.4725,1.24,55.466432999999995,24.99524467
69257,1,2,3,700,00:34:08,00:08:10,3.19166922,2.7500022,0.043357164096261315,0.28375,1.02375,0.81375,55.466432999999995,24.99524467
69258,1,2,3,701,00:34:08,00:08:10,2.56666872,3.8611142,0.014970945579388372,-0.1025,-0.08875,0.47375,55.46642767,24.995245
69259,1,2,3,702,00:34:08,00:08:10,2.16389062,4.027781,0.06650916660830264,0.065,0.5499999999999999,0.31375000000000003,55.46642583,24.99524467
69260,1,2,3,703,00:34:08,00:08:10,1.95000156,2.1388906000000003,0.09856495157831092,0.37125,2.2925,0.93,55.466423999999996,24.99524467
69261,1,2,3,704,00:34:08,00:08:10,1.46389006,4.861115,0.017483837868943225,0.55875,1.2825,0.27375,55.46642267,24.99524483
69262,1,2,3,705,00:34:08,00:08:10,1.35277886,1.111112,0.012168014133699806,-0.08125,0.85875,0.40125,55.46642133,24.99524533
69263,1,2,3,706,00:34:08,00:08:10,1.1527787,2.0000016,0.00887410066938238,-0.05375,0.85875,0.4425,55.46642067,24.99524617
69264,1,2,3,707,00:34:08,00:08:10,1.48333452,3.3055582,0.005382427868478347,-0.065,0.835,0.25625000000000003,55.46641967,24.99524717
69265,1,2,3,708,00:34:08,00:08:10,1.14166758,3.4166693999999995,0.0030779209412204428,-0.08374999999999999,0.9825,0.28375,55.466418999999995,24.995248
69266,1,2,3,709,00:34:08,00:08:10,0.82777844,3.1388914,0.0067568519732663255,0.0675,1.1487500000000002,0.18875,55.46641883,24.99524867
69267,1,2,3,710,00:34:09,00:08:11,0.82777844,3.1388914,0.00867427813011381,0.1875,1.34375,0.15125,55.46641883,24.99524867
69268,1,2,3,711,00:34:09,00:08:11,0.78888952,1.7500014,0.008644854877658785,0.12875,1.2225,0.16625,55.466418999999995,24.99525017
69269,1,2,3,712,00:34:09,00:08:11,0.972223,1.8333348000000003,0.005554183984370836,0.22,0.76375,0.175,55.46641933,24.995251
69270,1,2,3,713,00:34:09,00:08:11,0.9861119,0.138889,0.003231500826977923,0.31875,0.8775,0.03875,55.46641983,24.99525183
69271,1,2,3,714,00:34:09,00:08:11,0.98333412,0.027777800000000002,0.0035828011986099944,0.27,1.00625,0.06625,55.46642033,24.99525267
69272,1,2,3,715,00:34:09,00:08:11,1.10555644,1.2222232,0.011591230683583194,0.1725,1.55,0.04125,55.46642067,24.99525367
69273,1,2,3,716,00:34:09,00:08:11,1.03611194,0.694445,0.013896694559683743,0.01625,1.29,0.08875000000000001,55.46642083,24.9952545
69274,1,2,3,717,00:34:09,00:08:11,1.0416675,0.055555600000000004,0.007107929267196358,0.16999999999999998,0.9,0.15375,55.466421,24.9952555
69275,1,2,3,718,00:34:09,00:08:11,1.11666756,0.7500005999999999,0.0038855597270019975,0.025,0.7675,0.14125,55.466421499999996,24.9952565
69276,1,2,3,719,00:34:09,00:08:11,1.09166754,0.2500002,0.0063127353955064365,0.02625,1.00875,0.2475,55.466421999999994,24.99525733
69277,1,2,3,720,00:34:10,00:08:12,1.09166754,0.2500002,0.006129341787341746,0.1425,1.37,0.18625,55.466421999999994,24.99525733
69278,1,2,3,721,00:34:10,00:08:12,1.1388898,0.6666671999999999,0.01286238889310395,0.20875,1.355,0.26625,55.46642283,24.99525933
69279,1,2,3,722,00:34:10,00:08:12,1.37222332,2.3333352,0.007047102165931371,0.1275,0.84125,0.20125,55.46642367,24.9952605
69280,1,2,3,723,00:34:10,00:08:12,1.3194455,0.5277782,0.00505422654790316,0.17,0.68875,0.06,55.4664245,24.995261499999998
69281,1,2,3,724,00:34:10,00:08:12,1.28611214,0.33333359999999995,0.004571219525277489,0.21625,1.035,0.06625,55.466425,24.9952625
69282,1,2,3,725,00:34:10,00:08:12,1.42222336,1.3611122,0.010344745275687923,0.10125,1.40875,0.07625,55.46642583,24.99526367
69283,1,2,3,726,00:34:10,00:08:12,1.45555672,0.33333359999999995,0.008514553440704233,0.02125,1.8125,0.33125,55.46642617,24.995265
69284,1,2,3,727,00:34:10,00:08:12,1.3611122,0.9444452,0.019787867436865197,-0.04875,0.8049999999999999,0.1475,55.46642667,24.99526617
69285,1,2,3,728,00:34:10,00:08:12,1.31666772,0.44444480000000003,0.011557543731789436,0.03875,-0.1075,0.05,55.46642717,24.99526717
69286,1,2,3,729,00:34:10,00:08:12,1.4444456,1.2777788,0.059465541374451016,0.63875,1.8225,0.04125,55.46642783,24.995268499999998
69287,1,2,3,730,00:34:11,00:08:13,1.4444456,1.2777788,0.042257719830900514,0.4325,1.50625,0.4275,55.46642783,24.995268499999998
69288,1,2,3,731,00:34:11,00:08:13,1.29722326,0.055555600000000004,0.010508853687280172,0.13375,0.60375,0.19625,55.466429000000005,24.9952705
69289,1,2,3,732,00:34:11,00:08:13,1.27222324,0.2500002,0.01983052258848623,0.1,1.2325,0.25125,55.46642883,24.99527167
69290,1,2,3,733,00:34:11,00:08:13,1.40833446,1.3611122,0.01632940463704401,0.12125,1.68375,0.4575,55.46642867,24.995273
69291,1,2,3,734,00:34:11,00:08:13,1.15000092,2.5833353999999997,0.01815586709352563,0.1175,0.65125,0.1525,55.466428500000006,24.99527383
69292,1,2,3,735,00:34:11,00:08:13,1.32777884,1.7777792000000001,0.02258371644291276,0.3275,0.155,0.1075,55.46642833,24.99527517
69293,1,2,3,736,00:34:11,00:08:13,1.250001,0.7777784000000001,0.023703999116636808,0.705,1.63,0.55625,55.466428,24.99527617
69294,1,2,3,737,00:34:11,00:08:13,1.37777888,1.2777788,0.018999384830143386,0.10625,0.78,0.1875,55.46642767,24.9952775
69295,1,2,3,738,00:34:11,00:08:13,1.6111124,2.3333352,0.03184331262696164,-0.105,1.68375,0.52125,55.466427,24.995279
69296,1,2,3,739,00:34:11,00:08:13,1.91944598,3.0833357999999995,0.026121139288129144,-0.1175,1.965,0.59375,55.46642583,24.9952805
69297,1,2,3,740,00:34:12,00:08:14,1.91944598,3.0833357999999995,0.017043476540412036,0.0975,0.015000000000000006,0.025,55.46642583,24.9952805
69298,1,2,3,741,00:34:12,00:08:14,1.53333456,3.7222252,0.011051172590709507,0.145,-0.07625,0.04,55.46642433,24.99528317
69299,1,2,3,742,00:34:12,00:08:14,1.2916676999999999,2.4166686,0.03185510553496937,0.30125,1.24375,0.27125,55.46642367,24.995283999999998
69300,1,2,3,743,00:34:12,00:08:14,1.39722334,1.0555564,0.03679408582047247,0.43375,1.81,0.365,55.46642283,24.995285
69301,1,2,3,744,00:34:12,00:08:14,1.4583344999999999,0.6111116,0.0160122873131152,0.1225,0.98625,0.005000000000000003,55.46642217,24.99528633
69302,1,2,3,745,00:34:12,00:08:14,1.54444568,0.8611118000000001,0.03151772597702171,-0.0375,1.67625,0.5275,55.46642117,24.99528733
69303,1,2,3,746,00:34:12,00:08:14,1.78055698,2.361113,0.008774661802070883,0.05625,0.87,0.22,55.46641967,24.99528817
69304,1,2,3,747,00:34:12,00:08:14,1.45277894,3.2777803999999997,0.0031765959981850623,-0.02,0.7025,0.2125,55.4664185,24.99528883
69305,1,2,3,748,00:34:12,00:08:14,1.20000096,2.5277798,0.004880635617073847,0.04,0.8150000000000001,0.3725,55.466417500000006,24.99528917
69306,1,2,3,749,00:34:12,00:08:14,1.12777868,0.7222228,0.007172198193915789,0.05375,1.215,0.39375,55.4664165,24.99528933
69307,1,2,3,750,00:34:13,00:08:15,1.12777868,0.7222228,0.016475908397685566,0.19875,1.315,0.4775,55.4664165,24.99528933
69308,1,2,3,751,00:34:13,00:08:15,1.01111192,0.4722226,0.0051149742357359685,0.2125,0.91375,0.39,55.4664145,24.99528933
69309,1,2,3,752,00:34:13,00:08:15,0.99444524,0.16666679999999998,0.004113232357089471,0.135,0.90875,0.19625,55.4664135,24.995289
69310,1,2,3,753,00:34:13,00:08:15,1.05277862,0.5833338,0.004296871795639559,0.10375,0.94625,0.23875,55.4664125,24.99528883
69311,1,2,3,754,00:34:13,00:08:15,0.9027785,1.5000011999999998,0.0054089672748009006,0.195,0.905,0.28875,55.46641167,24.99528867
69312,1,2,3,755,00:34:13,00:08:15,1.13055646,2.2777796,0.01517178119717807,0.15375,1.4125,0.4,55.466410499999995,24.99528833
69313,1,2,3,756,00:34:13,00:08:15,1.05000084,0.8055561999999998,0.007121854001437541,0.1475,1.05125,0.37875,55.46640967,24.995288000000002
69314,1,2,3,757,00:34:13,00:08:15,1.13055646,0.8055561999999998,0.0049229459742533965,-0.03,0.9775,0.31,55.46640849999999,24.99528783
69315,1,2,3,758,00:34:13,00:08:15,1.13333424,0.027777800000000002,0.002509150840624234,0.00625,0.8975,0.1825,55.46640733,24.99528733
69316,1,2,3,759,00:34:13,00:08:15,1.08611198,0.4722226,0.0067639654422836535,-0.03125,0.8625,0.32,55.46640633,24.995287
69317,1,2,3,760,00:34:14,00:08:16,1.08611198,0.4722226,0.008395868630616048,0.0175,1.11625,0.3675,55.46640633,24.995287
69318,1,2,3,761,00:34:14,00:08:16,1.18333428,0.7500005999999999,0.00988846672637089,0.1025,1.33125,0.58,55.46640417,24.99528617
69319,1,2,3,762,00:34:14,00:08:16,1.11388978,0.694445,0.004939688780767502,0.11625,0.92375,0.47125,55.46640317,24.99528567
69320,1,2,3,763,00:34:14,00:08:16,1.13055646,0.16666679999999998,0.002904865368518872,0.10125,0.95375,0.255,55.46640233,24.99528517
69321,1,2,3,764,00:34:14,00:08:16,0.95555632,1.7500014,0.006049734772663103,0.1325,0.85125,0.31375,55.46640167,24.99528467
69322,1,2,3,765,00:34:14,00:08:16,0.87777848,0.7777784000000001,0.014731723499327887,-0.07375,1.25625,0.48125,55.46640083,24.99528433
69323,1,2,3,766,00:34:14,00:08:16,0.9027785,0.2500002,0.005931195790314873,-0.05,0.97,0.49375,55.4664,24.995283999999998
69324,1,2,3,767,00:34:14,00:08:16,0.78333396,1.1944454,0.0037395127281739,-0.115,0.9925,0.35375,55.46639933,24.99528383
69325,1,2,3,768,00:34:14,00:08:16,0.57777824,2.0555572,0.003148960100601493,-0.1575,0.9675,0.30375,55.46639883,24.9952835
69326,1,2,3,769,00:34:14,00:08:16,0.416667,1.6111124,0.0038735497561606025,-0.20125,1.00625,0.27,55.46639867,24.99528317
69327,1,2,3,770,00:34:15,00:08:17,0.416667,1.6111124,0.002450337299854348,-0.2025,0.99875,0.265,55.46639867,24.99528317
69328,1,2,3,771,00:34:15,00:08:17,0.59444492,1.6388901999999999,0.007970654054048159,-0.05,1.29375,0.14875,55.4663985,24.99528233
69329,1,2,3,772,00:34:15,00:08:17,0.6250005,0.3055558,0.006055829260743155,0.24625,1.25,0.1475,55.46639883,24.995282
69330,1,2,3,773,00:34:15,00:08:17,0.92222296,2.9722246,0.005695602794896957,0.18125,1.02625,0.21,55.46639933,24.99528117
69331,1,2,3,774,00:34:15,00:08:17,1.03333416,1.111112,0.0034670221417550783,0.17125,0.8475,0.15625,55.46639983,24.99528033
69332,1,2,3,775,00:34:15,00:08:17,0.90555628,1.2777788,0.0038089881260571844,0.16375,0.98625,0.24,55.46640017,24.99527967
69333,1,2,3,776,00:34:15,00:08:17,0.86666736,0.38888920000000005,0.003925215866570147,0.27625,1.0025,0.28375,55.4664005,24.995279
69334,1,2,3,777,00:34:15,00:08:17,1.01666748,1.5000011999999998,0.013320279643522843,0.20375,1.32,0.445,55.46640067,24.99527817
69335,1,2,3,778,00:34:15,00:08:17,0.94166742,0.7500005999999999,0.006391301997660004,0.12375,0.995,0.4075,55.466401,24.99527733
69336,1,2,3,779,00:34:15,00:08:17,1.00277858,0.6111116,0.004538178987549485,-0.0225,0.93125,0.19625,55.466401,24.995276500000003
69337,1,2,3,780,00:34:16,00:08:18,1.00277858,0.6111116,0.003486434420773707,-0.09375,0.91375,0.14375,55.466401,24.995276500000003
69338,1,2,3,781,00:34:16,00:08:18,0.97500078,0.055555600000000004,0.0068822430916158535,-0.06,1.05125,0.28250000000000003,55.46640117,24.99527483
69339,1,2,3,782,00:34:16,00:08:18,1.07500086,1.0000008,0.010889566459574609,0.06875,1.365,0.49625,55.46640133,24.995274
69340,1,2,3,783,00:34:16,00:08:18,1.35555664,2.8055578,0.008245190495370577,0.0725,1.0375,0.55875,55.46640167,24.99527283
69341,1,2,3,784,00:34:16,00:08:18,1.28055658,0.7500005999999999,0.0049562500973411635,0.14250000000000002,0.85625,0.25,55.46640217,24.99527183
69342,1,2,3,785,00:34:16,00:08:18,1.18333428,0.972223,0.0028220014300105512,0.1225,0.85875,0.14875,55.4664025,24.99527083
69343,1,2,3,786,00:34:16,00:08:18,1.10555644,0.7777784000000001,0.004365466677155746,0.18625,0.98375,0.20875,55.46640283,24.99526983
69344,1,2,3,787,00:34:16,00:08:18,1.14166758,0.3611114,0.011906043295073821,0.1975,1.39,0.455,55.46640317,24.995269
69345,1,2,3,788,00:34:16,00:08:18,1.2638899,1.2222232,0.007919854999321135,0.26375,1.07,0.45125,55.46640333,24.99526783
69346,1,2,3,789,00:34:16,00:08:18,1.25555656,0.08333339999999999,0.005742352017223203,0.0475,0.87875,0.2925,55.466403500000006,24.99526667
69347,1,2,3,790,00:34:17,00:08:19,1.25555656,0.08333339999999999,0.003513232877700203,-0.0125,0.81375,0.175,55.466403500000006,24.99526667
69348,1,2,3,791,00:34:17,00:08:19,1.1805565,0.4722226,0.008065654535758894,-0.02,0.9825,0.30875,55.466403500000006,24.99526467
69349,1,2,3,792,00:34:17,00:08:19,1.30000104,1.1944454,0.0117671445351666,0.15125,1.48,0.46625,55.46640333,24.99526333
69350,1,2,3,793,00:34:17,00:08:19,1.48889008,1.8888904,0.00805551941628012,0.205,1.11875,0.47875,55.46640333,24.995262
69351,1,2,3,794,00:34:17,00:08:19,1.4583344999999999,0.3055558,0.006814067243805086,0.11125,0.7112499999999999,0.2075,55.46640333,24.99526067
69352,1,2,3,795,00:34:17,00:08:19,1.31666772,1.4166678,0.00773936227452364,0.19375,0.75,0.22125,55.46640333,24.9952595
69353,1,2,3,796,00:34:17,00:08:19,1.3750011,0.5833338,0.0213341973484791,0.22625,1.0725,0.47375,55.46640317,24.99525817
69354,1,2,3,797,00:34:17,00:08:19,1.44722338,0.7222228,0.029841627015259064,0.09625,1.335,0.89625,55.46640283,24.995257000000002
69355,1,2,3,798,00:34:17,00:08:19,1.4027789,0.44444480000000003,0.010896364946033252,-0.08875,0.95375,0.5325,55.4664025,24.99525583
69356,1,2,3,799,00:34:17,00:08:19,1.2916676999999999,1.111112,0.003600341457619233,-0.02375,0.61125,0.25375,55.46640183,24.99525483
69357,1,2,3,800,00:34:18,00:08:20,1.2916676999999999,1.111112,0.005721848929783071,0.0325,0.725,0.3225,55.46640183,24.99525483
69358,1,2,3,801,00:34:18,00:08:20,1.17777872,0.44444480000000003,0.01541916170445174,0.07625,1.5074999999999998,0.38875,55.46640117,24.99525283
69359,1,2,3,802,00:34:18,00:08:20,1.33611218,1.5833346000000001,0.01720046488532441,0.48375,1.16375,0.295,55.46640083,24.99525167
69360,1,2,3,803,00:34:18,00:08:20,1.33888996,0.027777800000000002,0.010574614058566082,0.2925,0.5225,0.0425,55.46640067,24.9952505
69361,1,2,3,804,00:34:18,00:08:20,1.35555664,0.16666679999999998,0.012355065605976812,0.63625,0.90375,0.10875,55.46640033,24.99524917
69362,1,2,3,805,00:34:18,00:08:20,1.40833446,0.5277782,0.01286413922250479,0.795,1.2075,0.33,55.46639967,24.995248
69363,1,2,3,806,00:34:18,00:08:20,1.65555688,2.4722242000000003,0.028338126412495883,0.25875,0.8075,0.2275,55.46639867,24.99524683
69364,1,2,3,807,00:34:18,00:08:20,1.90000152,2.4444464,0.03575063935973193,0.34875,1.86625,0.50375,55.46639717,24.99524583
69365,1,2,3,808,00:34:18,00:08:20,2.2361129,3.3611138,0.027212850881569717,-0.07875,1.20875,0.3175,55.466395,24.995245
69366,1,2,3,809,00:34:18,00:08:20,2.46389086,2.2777796,0.029336438853266363,-0.14875,0.15875,-0.011250000000000008,55.46639267,24.99524417
69367,1,2,3,810,00:34:19,00:08:21,2.46389086,2.2777796,0.04839654615446115,1.05625,1.57125,0.6950000000000001,55.46639267,24.99524417
69368,1,2,3,811,00:34:19,00:08:21,3.21111368,2.1111128,0.04613203255552625,0.5875,0.97875,0.2525,55.46638683,24.995241500000002
69369,1,2,3,812,00:34:19,00:08:21,3.25555816,0.44444480000000003,0.11137943828341464,-0.3175,0.625,1.06875,55.466384,24.99524017
69370,1,2,3,813,00:34:19,00:08:21,4.12778108,0.0,0.0277439710264322,-0.2825,1.2275,0.75625,55.46637983,24.99523917
69371,1,2,3,814,00:34:19,00:08:21,4.24167006,1.1388898,0.03342388131428077,-0.28,0.022500000000000003,0.34625,55.46637567,24.99523817
69372,1,2,3,815,00:34:19,00:08:21,4.19167002,0.5000004,0.056908598750303775,0.9625,1.235,1.025,55.46637183,24.9952365
69373,1,2,3,816,00:34:19,00:08:21,4.45555912,2.638891,0.02615062917266969,0.08875,0.9075,0.3225,55.46636783,24.99523467
69374,1,2,3,817,00:34:19,00:08:21,4.36667016,0.8888896000000001,0.0621896290423057,0.22,0.245,0.27875,55.466364,24.995233
69375,1,2,3,818,00:34:19,00:08:21,4.70555932,3.3888915999999996,0.04951565620135581,0.155,1.69,0.77,55.46635933,24.995232
69376,1,2,3,819,00:34:19,00:08:21,4.88055946,1.7500014,0.03416428166388021,-0.59375,0.68875,0.23625,55.46635467,24.99523067
69377,1,2,3,820,00:34:20,00:08:22,4.88055946,1.7500014,0.08554413980394249,0.35625,1.295,0.86,55.46635467,24.99523067
69378,1,2,3,821,00:34:20,00:08:22,5.11389298,2.6944466,0.030297259847079525,0.2125,1.0575,0.39625,55.466345,24.99522833
69379,1,2,3,822,00:34:20,00:08:22,5.13333744,0.19444460000000002,0.039969184008094384,0.63125,-0.011250000000000005,-0.02000000000000001,55.46634017,24.9952265
69380,1,2,3,823,00:34:20,00:08:22,5.14722634,0.138889,0.11436938589266166,-0.3875,1.14125,1.26125,55.46633533,24.99522567
69381,1,2,3,824,00:34:20,00:08:22,5.42500434,2.77778,0.01721457511700511,-0.2725,0.58875,0.1825,55.466330000000006,24.9952245
69382,1,2,3,825,00:34:20,00:08:22,5.33611538,0.8888896000000001,0.03586673257775876,-0.06,-0.11375,0.11125,55.46632483,24.99522367
69383,1,2,3,826,00:34:20,00:08:22,5.16944858,1.666668,0.07177430633540223,0.26875,1.78375,1.155,55.466319999999996,24.99522217
69384,1,2,3,827,00:34:20,00:08:22,5.25833754,0.8888896000000001,0.0214823958547224,0.0975,1.0975,0.25,55.466315,24.9952205
69385,1,2,3,828,00:34:20,00:08:22,5.13055966,1.2777788,0.05732251438812841,0.43,0.1375,0.45625,55.46631017,24.99521883
69386,1,2,3,829,00:34:20,00:08:22,5.18611526,0.555556,0.1052402643116193,-0.385,2.02,0.71125,55.46630533,24.99521717
69387,1,2,3,830,00:34:21,00:08:23,5.18611526,0.555556,0.03705493418239048,-0.1775,0.6125,-0.16625,55.46630533,24.99521717
69388,1,2,3,831,00:34:21,00:08:23,5.13055966,3.5833362,0.11301156306216276,-0.255,1.87625,0.8150000000000001,55.466295499999994,24.99521383
69389,1,2,3,832,00:34:21,00:08:23,5.38611542,2.5555576,0.10461700214386956,-0.19125,1.29875,0.7825,55.4662905,24.99521167
69390,1,2,3,833,00:34:21,00:08:23,5.4305599,0.44444480000000003,0.02330261209618817,0.30875,0.43375,-0.09875,55.46628567,24.99520933
69391,1,2,3,834,00:34:21,00:08:23,4.91944838,5.1111152,0.058319803402162,0.018750000000000003,0.46375,0.33125,55.46628167,24.995207
69392,1,2,3,835,00:34:21,00:08:23,4.73055934,1.8888904,0.1548650731456051,-0.845,2.40375,0.98375,55.46627783,24.99520483
69393,1,2,3,836,00:34:21,00:08:23,5.2083375,4.7777816,0.024273291475418984,-0.365,0.42,0.1525,55.46627317,24.99520217
69394,1,2,3,837,00:34:21,00:08:23,4.60000368,0.0,0.034660207125945544,-0.12,0.12875,0.3125,55.46626967,24.99519967
69395,1,2,3,838,00:34:21,00:08:23,4.3611146,2.3888908,0.0763781479739171,-0.07125,2.34125,1.27375,55.46626683,24.99519683
69396,1,2,3,839,00:34:21,00:08:23,4.82222608,4.6111148,0.0265073717291482,0.1,0.90875,0.19875,55.466263500000004,24.995193
69397,1,2,3,840,00:34:22,00:08:24,4.82222608,4.6111148,0.0578415395313489,0.14749999999999994,0.435,0.35125,55.466263500000004,24.995193
69398,1,2,3,841,00:34:22,00:08:24,4.53055918,0.16666679999999998,0.0628855417647352,-0.6325000000000001,1.78625,0.8875000000000001,55.46625917,24.995186
69399,1,2,3,842,00:34:22,00:08:24,4.77222604,2.4166686,0.023398252101392087,-0.32625,0.46625,0.22625,55.46625683,24.995182
69400,1,2,3,843,00:34:22,00:08:24,4.58889256,1.8333348000000003,0.09565884703354292,0.9675,1.0125,0.6900000000000001,55.466255000000004,24.99517833
69401,1,2,3,844,00:34:22,00:08:24,4.7916705,2.0277794,0.026212391368157967,0.3875,0.98875,0.41875,55.46625417,24.995174
69402,1,2,3,845,00:34:22,00:08:24,4.89444836,1.0277786,0.038233672480230615,0.51875,-0.06499999999999999,0.08499999999999999,55.46625283,24.9951695
69403,1,2,3,846,00:34:22,00:08:24,4.81111496,0.833334,0.12516948594053706,0.6675,1.675,1.1175,55.46625117,24.9951655
69404,1,2,3,847,00:34:22,00:08:24,5.04722626,2.361113,0.04617577585640671,0.06624999999999999,0.9175,0.35875,55.46624933,24.99516117
69405,1,2,3,848,00:34:22,00:08:24,4.847226099999999,2.0000016,0.04213644067276282,-0.4925,0.165,-0.018750000000000003,55.46624717,24.99515733
69406,1,2,3,849,00:34:22,00:08:24,4.76667048,0.8055561999999998,0.10993198573847464,1.3125,1.87125,0.35875,55.466244999999994,24.9951535
69407,1,2,3,850,00:34:23,00:08:25,4.76667048,0.8055561999999998,0.029331242784533917,0.3675,1.12875,0.28,55.466244999999994,24.9951535
69408,1,2,3,851,00:34:23,00:08:25,5.13611522,1.7500014,0.06302476262485936,0.19,0.07125,0.40875,55.46624117,24.99514483
69409,1,2,3,852,00:34:23,00:08:25,5.14167078,0.055555600000000004,0.07712705323439492,0.17500000000000002,1.995,0.81625,55.466238,24.99514133
69410,1,2,3,853,00:34:23,00:08:25,5.34444872,2.0277794,0.03617918091299474,-0.41875,0.86625,0.25,55.46623483,24.99513733
69411,1,2,3,854,00:34:23,00:08:25,5.11944854,2.2500017999999997,0.12432745005392068,0.4025,1.36,0.655,55.46623149999999,24.99513383
69412,1,2,3,855,00:34:23,00:08:25,5.33889316,2.1944462000000002,0.03896939367186706,0.13375,0.83625,0.57375,55.466228,24.99513
69413,1,2,3,856,00:34:23,00:08:25,5.53889332,2.0000016,0.041030125580336016,0.5125,0.05625,-0.085,55.46622483,24.99512583
69414,1,2,3,857,00:34:23,00:08:25,5.40833766,1.3055566,0.17834442483064106,-0.3175,1.84,1.36875,55.46622117,24.9951225
69415,1,2,3,858,00:34:23,00:08:25,5.48889328,0.8055561999999998,0.056583116670187984,-0.028750000000000005,0.75,0.445,55.46621733,24.995119
69416,1,2,3,859,00:34:23,00:08:25,5.43333768,0.555556,0.013257125026408323,-0.2725,0.25375,-0.025,55.46621333,24.99511567
69417,1,2,3,860,00:34:24,00:08:26,5.43333768,0.555556,0.0892496370664985,-0.01,1.18,0.6425,55.46621333,24.99511567
69418,1,2,3,861,00:34:24,00:08:26,4.96389286,0.8055561999999998,0.11891691906365864,0.2075,2.42,0.6537499999999999,55.46620683,24.99510917
69419,1,2,3,862,00:34:24,00:08:26,4.95278174,0.11111120000000001,0.029428697523890494,0.1725,0.058749999999999976,0.11,55.466203500000006,24.99510567
69420,1,2,3,863,00:34:24,00:08:26,4.65833706,2.9444467999999997,0.03568804936166545,-0.06625,0.08499999999999999,0.07625000000000001,55.46620083,24.99510233
69421,1,2,3,864,00:34:24,00:08:26,4.3750035,2.8333356,0.2422705670550479,0.08875000000000001,2.32625,1.16,55.46619833,24.99509933
69422,1,2,3,865,00:34:24,00:08:26,4.65555928,2.8055578,0.040889328891001366,-0.1875,1.045,0.13125,55.46619533,24.99509583
69423,1,2,3,866,00:34:24,00:08:26,4.34444792,3.1111136000000004,0.03920503253480893,-0.32375,0.33125,0.11125,55.466193000000004,24.99509283
69424,1,2,3,867,00:34:24,00:08:26,3.70555852,0.0,0.10794551619802796,0.1325,2.14375,0.4025,55.46619167,24.99509
69425,1,2,3,868,00:34:24,00:08:26,4.00833654,3.0277802000000005,0.034647974652871234,0.14125,1.51125,0.4,55.466190000000005,24.9950865
69426,1,2,3,869,00:34:24,00:08:26,4.02222544,0.138889,0.016465906504074857,0.4325,0.235,-0.0825,55.46618867,24.99508283
69427,1,2,3,870,00:34:25,00:08:27,4.02222544,0.138889,0.0546589506727787,0.02875,0.7125,0.46125,55.46618867,24.99508283
69428,1,2,3,871,00:34:25,00:08:27,3.83055862,0.694445,0.053815028458040606,0.22125,1.87625,0.6325,55.4661875,24.99507617
69429,1,2,3,872,00:34:25,00:08:27,3.83055862,0.0,0.016791186348911552,-0.23125,0.62375,0.1125,55.46618633,24.99507283
69430,1,2,3,873,00:34:25,00:08:27,3.86666976,0.3611114,0.03452164951137415,-0.1925,0.14125,0.28250000000000003,55.466185499999995,24.99506933
69431,1,2,3,874,00:34:25,00:08:27,3.83611418,0.3055558,0.08093471260969277,0.715,1.98375,0.83875,55.466184999999996,24.99506583
69432,1,2,3,875,00:34:25,00:08:27,4.03611434,2.0000016,0.01969066789226897,0.2725,0.9125,0.145,55.46618467,24.99506217
69433,1,2,3,876,00:34:25,00:08:27,3.85555864,1.805557,0.029584254968100486,0.27875,-0.1875,0.1475,55.46618433,24.99505883
69434,1,2,3,877,00:34:25,00:08:27,3.80000304,0.555556,0.10363793969065438,0.12375,1.90125,1.2725,55.46618367,24.9950555
69435,1,2,3,878,00:34:25,00:08:27,4.23333672,4.3333368,0.021982786436254467,-0.004999999999999996,1.06625,0.38375,55.46618283,24.995051500000002
69436,1,2,3,879,00:34:25,00:08:27,4.486114700000001,2.5277798,0.0237614591593191,-0.435,0.035,0.14375,55.46618183,24.99504733
69437,1,2,3,880,00:34:26,00:08:28,4.486114700000001,2.5277798,0.0753043562511222,0.36875,1.57375,0.76125,55.46618183,24.99504733
69438,1,2,3,881,00:34:26,00:08:28,3.96389206,0.7777784000000001,0.023434290451530563,0.3075,1.54875,0.46625,55.46618017,24.99504067
69439,1,2,3,882,00:34:26,00:08:28,4.11666996,1.527779,0.02112688079728836,0.34125,0.2925,-0.13875,55.46617983,24.99503683
69440,1,2,3,883,00:34:26,00:08:28,3.75833634,3.5833362,0.0715728175342256,3.4694469519536134e-18,1.10625,0.715,55.46617883,24.995034
69441,1,2,3,884,00:34:26,00:08:28,3.99444764,2.361113,0.05195316876938896,0.14125,1.44,0.69625,55.46617767,24.99503033
69442,1,2,3,885,00:34:26,00:08:28,4.11944774,1.250001,0.015963018344021883,-0.37375,0.50375,0.0375,55.46617617,24.99502683
69443,1,2,3,886,00:34:26,00:08:28,3.81389194,3.055558,0.0516474760115939,0.033749999999999995,0.715,0.54375,55.466175,24.99502383
69444,1,2,3,887,00:34:26,00:08:28,4.07778104,2.638891,0.06354119223206403,0.63375,1.66375,0.77875,55.4661735,24.99502033
69445,1,2,3,888,00:34:26,00:08:28,4.597225900000001,5.194448599999999,0.02211066937682604,0.19,0.7887500000000001,0.115,55.46617217,24.995016
69446,1,2,3,889,00:34:26,00:08:28,4.29444788,3.0277802000000005,0.033743312337225696,0.365,-0.1075,0.21625,55.46617083,24.9950125
69447,1,2,3,890,00:34:27,00:08:29,4.29444788,3.0277802000000005,0.10347840831324112,0.1175,2.1275,1.05625,55.46617083,24.9950125
69448,1,2,3,891,00:34:27,00:08:29,4.4722258,2.2777796,0.01877499879243624,-0.1575,0.7825,0.2125,55.466167000000006,24.99500533
69449,1,2,3,892,00:34:27,00:08:29,4.26111452,2.1111128,0.020103884788650533,-0.2475,0.045,0.1725,55.46616517,24.99500217
69450,1,2,3,893,00:34:27,00:08:29,4.2083367,0.5277782,0.08782860359564597,0.52125,1.72625,1.065,55.466163,24.99499917
69451,1,2,3,894,00:34:27,00:08:29,4.39722574,1.8888904,0.016613766460471725,0.18375,1.21125,0.19,55.466161,24.994995499999998
69452,1,2,3,895,00:34:27,00:08:29,4.37778128,0.19444460000000002,0.0268098705961935,0.455,-0.007500000000000005,-0.165,55.46615917,24.994992
69453,1,2,3,896,00:34:27,00:08:29,4.30000344,0.7777784000000001,0.10663315641717476,0.031250000000000014,1.64,1.23125,55.46615683,24.994989
69454,1,2,3,897,00:34:27,00:08:29,4.53889252,2.3888908,0.022835593718803626,0.0037499999999999977,1.26875,0.36375,55.46615433,24.994985500000002
69455,1,2,3,898,00:34:27,00:08:29,4.42778132,1.111112,0.028894330885744567,-0.54,0.2775,0.18375,55.46615167,24.994982500000003
69456,1,2,3,899,00:34:27,00:08:29,4.26944786,1.5833346000000001,0.07324406417989407,0.4275,1.34125,0.6024999999999999,55.46614917,24.994979500000003
69457,1,2,3,900,00:34:28,00:08:30,4.26944786,1.5833346000000001,0.02783659125913244,0.44875,1.4675,0.50875,55.46614917,24.994979500000003
69458,1,2,3,901,00:34:28,00:08:30,4.53333696,0.027777800000000002,0.022942999989604387,0.48,0.2675,-0.1525,55.46614417,24.9949725
69459,1,2,3,902,00:34:28,00:08:30,4.52500362,0.08333339999999999,0.10480365475197394,-0.03875,1.25875,0.95375,55.46614133,24.9949695
69460,1,2,3,903,00:34:28,00:08:30,4.70278154,1.7777792000000001,0.03723011922416336,0.0825,1.29875,0.5025000000000001,55.46613817,24.99496617
69461,1,2,3,904,00:34:28,00:08:30,4.74444824,0.416667,0.021543299345479574,-0.575,0.3375,0.18875,55.46613483,24.99496317
69462,1,2,3,905,00:34:28,00:08:30,4.5555592,1.8888904,0.09520802804021301,0.3025,1.33375,0.74375,55.46613183,24.99496017
69463,1,2,3,906,00:34:28,00:08:30,4.80000384,2.4444464,0.040773958715694565,0.39,1.2475,0.5625,55.4661285,24.99495683
69464,1,2,3,907,00:34:28,00:08:30,4.84167054,0.416667,0.026239785934368067,0.4675,0.44125,-0.13375,55.46612567,24.99495317
69465,1,2,3,908,00:34:28,00:08:30,4.69167042,1.5000011999999998,0.08031724714955814,0.012500000000000002,1.09875,0.78875,55.4661225,24.99495033
69466,1,2,3,909,00:34:28,00:08:30,4.8333372,1.4166678,0.08245779118832748,0.14875,1.4425,0.62375,55.46611917,24.99494717
69467,1,2,3,910,00:34:29,00:08:31,4.8333372,1.4166678,0.018465921488349957,-0.3425,0.4675,0.04125,55.46611917,24.99494717
69468,1,2,3,911,00:34:29,00:08:31,4.65555928,2.2777796,0.04872360375467755,-0.09625,0.4825,0.40875,55.46611233,24.99494133
69469,1,2,3,912,00:34:29,00:08:31,4.80278162,1.4722233999999998,0.09092714948355772,0.5650000000000001,2.2475,0.8175,55.46610883,24.99493833
69470,1,2,3,913,00:34:29,00:08:31,4.8333372,0.3055558,0.01689399494428644,0.19,0.8625,0.08499999999999999,55.466105500000005,24.994935
69471,1,2,3,914,00:34:29,00:08:31,4.63611482,1.9722238,0.026039949861500017,0.29375,-0.006250000000000004,-0.0825,55.46610233,24.99493217
69472,1,2,3,915,00:34:29,00:08:31,4.60278146,0.33333359999999995,0.13196274084474807,0.0825,1.91875,1.125,55.46609917,24.99492933
69473,1,2,3,916,00:34:29,00:08:31,4.74722602,1.4444456,0.02228357961337266,-1.0425281514805928e-18,0.9725,0.08875,55.466095499999994,24.99492633
69474,1,2,3,917,00:34:29,00:08:31,4.68889264,0.5833338,0.031867174066356516,-0.4075,0.08375,0.20625,55.466092,24.9949235
69475,1,2,3,918,00:34:29,00:08:31,4.43889244,2.500002,0.10854671236865478,0.52875,1.9325,0.74375,55.46608883,24.994920999999998
69476,1,2,3,919,00:34:29,00:08:31,4.90833726,4.6944482,0.0269553229190983,0.1775,1.215,0.31875,55.46608517,24.99491783
69477,1,2,3,920,00:34:30,00:08:32,4.90833726,4.6944482,0.021908582144141802,0.4675,0.145,-0.22125,55.46608517,24.99491783
69478,1,2,3,921,00:34:30,00:08:32,4.48889248,2.8611134,0.10037602302941703,0.02625000000000001,1.67375,0.80375,55.46607883,24.994912
69479,1,2,3,922,00:34:30,00:08:32,4.69167042,2.0277794,0.061061516262963474,0.07375,1.17875,0.5175,55.46607533,24.99490883
69480,1,2,3,923,00:34:30,00:08:32,4.63055926,0.6111116,0.016169662001702386,-0.365,0.42625,0.0125,55.46607167,24.99490633
69481,1,2,3,924,00:34:30,00:08:32,4.44722578,1.8333348000000003,0.03236481845774977,-0.13875,0.32625,0.22875,55.466068500000006,24.99490367
69482,1,2,3,925,00:34:30,00:08:32,4.50833694,0.6111116,0.1063124735399562,0.46125,2.475,0.91375,55.46606517,24.99490083
69483,1,2,3,926,00:34:30,00:08:32,4.64722594,1.38889,0.0190791849033823,0.115,0.70625,0.08750000000000001,55.46606183,24.99489783
69484,1,2,3,927,00:34:30,00:08:32,4.45555912,1.9166682000000002,0.01823611657281916,0.2725,0.03625,-0.17125,55.46605883,24.994895
69485,1,2,3,928,00:34:30,00:08:32,4.41111464,0.44444480000000003,0.11616339385839453,0.255,1.8725,0.97875,55.46605567,24.99489217
69486,1,2,3,929,00:34:30,00:08:32,4.44167022,0.3055558,0.02293545596632242,-0.08625,1.15,0.095,55.4660525,24.99488933
69487,1,2,3,930,00:34:31,00:08:33,4.44167022,0.3055558,0.02605241412309693,-0.44375,0.0975,0.11875,55.4660525,24.99488933
69488,1,2,3,931,00:34:31,00:08:33,4.20278114,2.3333352,0.10939014741627973,0.41,1.98,0.57375,55.466046,24.99488433
69489,1,2,3,932,00:34:31,00:08:33,4.430559099999999,2.2777796,0.026989787321579976,0.3,1.40375,0.43,55.46604267,24.9948815
69490,1,2,3,933,00:34:31,00:08:33,4.486114700000001,0.555556,0.019538125307207138,0.37125,0.19125,-0.13,55.46603967,24.99487833
69491,1,2,3,934,00:34:31,00:08:33,4.21389226,2.7222244,0.06671098954380633,0.10125,1.0375,0.44875,55.46603683,24.99487583
69492,1,2,3,935,00:34:31,00:08:33,4.42222576,2.083335,0.07279929006619501,0.23625,1.90625,0.60875,55.46603367,24.994873000000002
69493,1,2,3,936,00:34:31,00:08:33,4.430559099999999,0.08333339999999999,0.016631960474654726,-0.185,0.55125,-0.06125,55.46603017,24.994870499999998
69494,1,2,3,937,00:34:31,00:08:33,4.2222256,2.083335,0.04514257673492093,-0.2325,0.43625,0.4975,55.466027000000004,24.994868
69495,1,2,3,938,00:34:31,00:08:33,4.23889228,0.16666679999999998,0.0958119742112447,0.175,2.47125,0.59875,55.46602367,24.99486583
69496,1,2,3,939,00:34:31,00:08:33,4.319447900000001,0.8055561999999998,0.019069452071534942,0.10875,0.5237499999999999,0.06125,55.46602033,24.99486317
69497,1,2,3,940,00:34:32,00:08:34,4.319447900000001,0.8055561999999998,0.023329446796467604,0.25875,0.16375,-0.175,55.46602033,24.99486317
69498,1,2,3,941,00:34:32,00:08:34,4.00833654,1.2777788,0.1303250205988152,-0.09375,1.66125,1.02125,55.46601467,24.99485817
69499,1,2,3,942,00:34:32,00:08:34,4.21667004,2.083335,0.024387712640371168,-0.18875,1.04625,0.22375,55.4660115,24.9948555
69500,1,2,3,943,00:34:32,00:08:34,4.1388922,0.7777784000000001,0.02285329964667988,-0.2725,-0.20875,0.1675,55.46600817,24.99485317
69501,1,2,3,944,00:34:32,00:08:34,3.77222524,3.6666696000000005,0.1311440835824795,0.375,2.60625,0.59375,55.46600583,24.99485067
69502,1,2,3,945,00:34:32,00:08:34,3.88055866,1.0833342,0.0682500166014765,0.26,1.5875,0.8025,55.46600333,24.99484783
69503,1,2,3,946,00:34:32,00:08:34,3.85555864,0.2500002,0.01851432570388041,0.19375,0.14375000000000002,0.009999999999999998,55.466001,24.99484517
69504,1,2,3,947,00:34:32,00:08:34,3.35833602,4.972226200000001,0.025277165215894126,0.17,0.023749999999999997,-0.11,55.46599917,24.99484283
69505,1,2,3,948,00:34:32,00:08:34,3.2638915,0.9444452,0.1752090335443254,-0.0875,2.655,0.70375,55.4659975,24.99484033
69506,1,2,3,949,00:34:32,00:08:34,3.09444692,1.6944457999999998,0.06789103111414453,0.14875,1.09,0.42375,55.46599583,24.99483817
69507,1,2,3,950,00:34:33,00:08:35,3.09444692,1.6944457999999998,0.01808180300894672,-0.23875,0.1275,0.0475,55.46599583,24.99483817
69508,1,2,3,951,00:34:33,00:08:35,2.5833353999999997,0.0,0.02592259362821186,-0.07875,0.045000000000000005,0.1075,55.46599317,24.994834
69509,1,2,3,952,00:34:33,00:08:35,2.5138909,0.694445,0.1251344261646283,0.1325,2.1025,0.66875,55.46599217,24.99483183
69510,1,2,3,953,00:34:33,00:08:35,2.5555576,0.416667,0.02265672712488056,0.21875,1.6025,0.25,55.46599133,24.99482967
69511,1,2,3,954,00:34:33,00:08:35,2.53889092,0.16666679999999998,0.014307350430590591,0.215,0.05625,0.065,55.46599067,24.9948275
69512,1,2,3,955,00:34:33,00:08:35,2.07777944,4.6111148,0.03796685550535686,0.1525,0.695,0.04375,55.46599067,24.99482583
69513,1,2,3,956,00:34:33,00:08:35,2.14166838,0.6388894,0.10228867407326846,0.24,2.2,0.525,55.46599017,24.994823999999998
69514,1,2,3,957,00:34:33,00:08:35,1.88055706,2.6111132,0.02167525590838889,-0.03375,0.99875,0.11,55.46598967,24.9948225
69515,1,2,3,958,00:34:33,00:08:35,1.85000148,0.3055558,0.009518675765504258,-0.08750000000000001,0.3975,0.20375,55.46598967,24.99482083
69516,1,2,3,959,00:34:33,00:08:35,1.60277906,2.4722242000000003,0.053192816215902584,0.48375,1.6725,0.37,55.4659895,24.994819500000002
