,GameID,Half,PlayerID,FrameID,Time,GameClock,Speed,AccelImpulse,AccelLoad,AccelX,AccelY,AccelZ,Longitude,Latitude
0,1,1,2,1,00:22:01,00:00:00,0.65833386,0.6111116,0.005330055775340482,0.1325,0.69875,0.565,55.466666000000004,24.99487317
1,1,1,2,2,00:22:01,00:00:00,0.59444492,0.6388894,0.0065681174768838745,0.11125,0.92,0.70625,55.46666633,24.99487367
2,1,1,2,3,00:22:01,00:00:00,0.36388918,2.3055574,0.0031143141241669623,0.01375,0.77,0.6775,55.46666683,24.99487383
3,1,1,2,4,00:22:01,00:00:00,0.44444480000000003,0.8055561999999998,0.0026018184905968666,0.00625,0.88625,0.595,55.46666717,24.99487417
4,1,1,2,5,00:22:01,00:00:00,0.40000032,0.44444480000000003,0.00381313875955484,-0.017499999999999998,0.8575,0.57375,55.46666783,24.994874
5,1,1,2,6,00:22:01,00:00:00,0.0,4.0000032,0.0030357852445959373,-0.06375,0.90375,0.55125,55.46666817,24.99487417
6,1,1,2,7,00:22:01,00:00:00,0.0,0.0,0.0044331236740690885,-0.06875,1.0175,0.45375,55.466668500000004,24.994874
7,1,1,2,8,00:22:01,00:00:00,0.0,0.0,0.00541869611211891,-0.0975,1.08625,0.365,55.466668999999996,24.994874
8,1,1,2,9,00:22:01,00:00:00,0.0,0.0,0.005841307840687845,-0.13,0.8887499999999999,0.53625,55.46666917,24.99487383
9,1,1,2,10,00:22:02,00:00:01,0.0,0.0,0.00746453922609388,-0.1775,0.8525,0.58875,55.46666917,24.99487383
10,1,1,2,11,00:22:02,00:00:01,0.0,0.0,0.005548698158773078,-0.16749999999999998,0.90875,0.5525,55.46666917,24.99487367
11,1,1,2,12,00:22:02,00:00:01,0.0,0.0,0.006430762460071173,-0.10875,0.91375,0.55875,55.46666933,24.99487333
12,1,1,2,13,00:22:02,00:00:01,0.39722254,3.9722254,0.00507912007908566,-0.05875,0.86375,0.5925,55.46666933,24.99487267
13,1,1,2,14,00:22:02,00:00:01,0.37222252,0.2500002,0.00404378877347331,-0.01375,0.84375,0.60375,55.466669499999995,24.99487217
14,1,1,2,15,00:22:02,00:00:01,0.34166694,0.3055558,0.0015182830462427488,0.0575,0.895,0.6112500000000001,55.46666933,24.994872
15,1,1,2,16,00:22:02,00:00:01,0.37222252,0.3055558,0.002377113995150987,0.0825,0.87875,0.5925,55.46666917,24.99487183
16,1,1,2,17,00:22:02,00:00:01,0.0,3.7222252,0.0038262188672706365,0.12625,0.84,0.61625,55.46666917,24.99487167
17,1,1,2,18,00:22:02,00:00:01,0.0,0.0,0.004909086745507464,0.07625,0.94,0.58,55.46666917,24.99487167
18,1,1,2,19,00:22:02,00:00:01,0.0,0.0,0.0065297404465723494,-0.01125,0.8625,0.605,55.466669499999995,24.99487183
19,1,1,2,20,00:22:03,00:00:02,0.0,0.0,0.005650593906676774,0.10375,0.8825,0.58125,55.466669499999995,24.99487183
20,1,1,2,21,00:22:03,00:00:02,0.0,0.0,0.003505238100148003,-0.0225,0.93125,0.5625,55.46667017,24.99487217
21,1,1,2,22,00:22:03,00:00:02,0.0,0.0,0.0028293857593975967,-0.07625,0.84125,0.615,55.46667033,24.99487233
22,1,1,2,23,00:22:03,00:00:02,0.0,0.0,0.0032648992625930805,-0.09875,0.83625,0.6275000000000001,55.4666705,24.9948725
23,1,1,2,24,00:22:03,00:00:02,0.0,0.0,0.005486350221518676,0.05625,0.81125,0.605,55.46667067,24.9948725
24,1,1,2,25,00:22:03,00:00:02,0.0,0.0,0.0037740684685239993,0.25375,0.7975,0.56625,55.466671,24.9948725
25,1,1,2,26,00:22:03,00:00:02,0.0,0.0,0.0026531324273640113,0.30875,0.875,0.50625,55.466671,24.99487233
26,1,1,2,27,00:22:03,00:00:02,0.0,0.0,0.002769423895836247,0.36875,0.9625,0.4,55.466671,24.99487217
27,1,1,2,28,00:22:03,00:00:02,0.0,0.0,0.0035759543261758733,0.41625,0.98875,0.3975,55.46667117,24.99487217
28,1,1,2,29,00:22:03,00:00:02,0.0,0.0,0.003942725826294459,0.31125,1.00125,0.39625,55.46667117,24.994872
29,1,1,2,30,00:22:04,00:00:03,0.0,0.0,0.005274555380913872,0.3725,1.065,0.3125,55.46667117,24.994872
30,1,1,2,31,00:22:04,00:00:03,0.0,0.0,0.005177524446797693,0.175,0.85375,0.42375,55.4666715,24.99487183
31,1,1,2,32,00:22:04,00:00:03,0.0,0.0,0.0057349940617288965,0.17125,0.87,0.5875,55.46667167,24.99487183
32,1,1,2,33,00:22:04,00:00:03,0.0,0.0,0.006095667733081896,0.0275,0.83625,0.5912499999999999,55.46667183,24.99487183
33,1,1,2,34,00:22:04,00:00:03,0.0,0.0,0.014050745261870402,0.145,1.0475,0.465,55.46667217,24.99487183
34,1,1,2,35,00:22:04,00:00:03,0.0,0.0,0.012982787672492314,-0.06,0.985,0.41,55.466672499999994,24.99487167
35,1,1,2,36,00:22:04,00:00:03,0.0,0.0,0.00832296850104455,-0.04875,0.8625,0.53625,55.46667267,24.9948715
36,1,1,2,37,00:22:04,00:00:03,0.0,0.0,0.0070988584070409075,0.14375,0.8625,0.57375,55.46667283,24.9948715
37,1,1,2,38,00:22:04,00:00:03,0.0,0.0,0.006945022507704923,0.04375,0.89625,0.595,55.46667267,24.9948715
38,1,1,2,39,00:22:04,00:00:03,0.0,0.0,0.001972408968045607,0.00375,1.01375,0.43625,55.46667267,24.9948715
39,1,1,2,40,00:22:05,00:00:04,0.0,0.0,0.002306270275349498,-0.0175,1.0,0.4325,55.46667267,24.9948715
40,1,1,2,41,00:22:05,00:00:04,0.0,0.0,0.0018223105962685497,0.0225,0.9675,0.47375,55.466673,24.99487133
41,1,1,2,42,00:22:05,00:00:04,0.0,0.0,0.00497898925663651,0.06125,1.07125,0.37125,55.46667283,24.99487133
42,1,1,2,43,00:22:05,00:00:04,0.0,0.0,0.00684259143563205,0.0825,0.945,0.50125,55.466673,24.99487117
43,1,1,2,44,00:22:05,00:00:04,0.0,0.0,0.008464290921972753,-0.14875,0.7525000000000001,0.7425,55.46667283,24.9948715
44,1,1,2,45,00:22:05,00:00:04,0.0,0.0,0.011955912990521834,0.19125,0.9025,0.5287499999999999,55.466673,24.99487167
45,1,1,2,46,00:22:05,00:00:04,0.0,0.0,0.012641551859021657,0.04,0.6675,0.59625,55.46667317,24.99487167
46,1,1,2,47,00:22:05,00:00:04,0.0,0.0,0.018643204699789775,-0.06875,0.98625,0.77,55.46667317,24.99487167
47,1,1,2,48,00:22:05,00:00:04,0.36944474,3.6944474,0.015417442191428671,0.011250000000000005,0.835,0.6475,55.46667367,24.994872
48,1,1,2,49,00:22:05,00:00:04,0.0,3.6944474,0.007150378074713983,-0.155,0.73375,0.60875,55.46667383,24.994872
49,1,1,2,50,00:22:06,00:00:05,0.0,3.6944474,0.00549285637327032,-0.21125,0.7525,0.67125,55.46667383,24.994872
50,1,1,2,51,00:22:06,00:00:05,0.3194447,0.19444460000000002,0.004259700565886025,-0.22875,0.8675,0.70875,55.466674,24.99487267
51,1,1,2,52,00:22:06,00:00:05,0.0,3.1944470000000003,0.011430393712742506,0.05125,0.89375,0.6075,55.46667417,24.99487267
52,1,1,2,53,00:22:06,00:00:05,0.0,0.0,0.006554372346837679,0.05125,0.82625,0.64,55.46667417,24.99487267
53,1,1,2,54,00:22:06,00:00:05,0.0,0.0,0.008737269748033065,-0.0325,0.86625,0.7375,55.46667417,24.99487283
54,1,1,2,55,00:22:06,00:00:05,0.35555584,3.5555584000000002,0.00654911031883434,-0.195,0.6175,0.64,55.46667417,24.99487317
55,1,1,2,56,00:22:06,00:00:05,0.43888924,0.833334,0.00847676658540281,-0.27875,0.37875,0.5650000000000001,55.466674,24.994873499999997
56,1,1,2,57,00:22:06,00:00:05,0.46111148,0.22222240000000001,0.0645114286654252,0.1525,1.30375,0.90625,55.46667367,24.99487367
57,1,1,2,58,00:22:06,00:00:05,0.48333372,0.22222240000000001,0.013100452485650605,0.35875,0.84125,0.6975,55.46667333,24.99487383
58,1,1,2,59,00:22:06,00:00:05,0.56666712,0.833334,0.004481593560991144,0.485,0.60375,0.58875,55.46667283,24.994874
59,1,1,2,60,00:22:07,00:00:06,0.56666712,0.833334,0.00585089613583969,0.40125,0.7825,0.5175,55.46667283,24.994874
60,1,1,2,61,00:22:07,00:00:06,0.64722274,1.5555568000000002,0.005911533023176093,0.32875,0.8575,0.66125,55.466673,24.99487483
61,1,1,2,62,00:22:07,00:00:06,0.83611178,1.8888904,0.01739194053373856,0.0125,0.87375,1.01375,55.466674,24.99487533
62,1,1,2,63,00:22:07,00:00:06,1.00555636,1.6944457999999998,0.008319674094911926,-0.14625,0.3525,1.0325,55.46667467,24.994876
63,1,1,2,64,00:22:07,00:00:06,1.28333436,2.77778,0.0035623723615240905,-0.25375,0.3425,0.93375,55.4666755,24.994877
64,1,1,2,65,00:22:07,00:00:06,1.0694453000000002,2.1388906000000003,0.003005369142362878,-0.17875,0.3125,0.80375,55.46667617,24.99487783
65,1,1,2,66,00:22:07,00:00:06,0.94166742,1.2777788,0.0027192259465638195,-0.2475,0.2075,0.77375,55.46667683,24.9948785
66,1,1,2,67,00:22:07,00:00:06,1.05000084,1.0833342,0.017417321071535742,0.2975,0.29625,0.94875,55.46667717,24.9948795
67,1,1,2,68,00:22:07,00:00:06,1.05833418,0.08333339999999999,0.010747536241176666,0.18000000000000002,0.09375,0.9225,55.46667733,24.99488033
68,1,1,2,69,00:22:07,00:00:06,1.2222232,1.6388901999999999,0.005280529833085647,-0.02,-0.44,0.74125,55.46667783,24.99488133
69,1,1,2,70,00:22:08,00:00:07,1.2222232,1.6388901999999999,0.009552282902848269,-0.18625,-0.66,0.92375,55.46667783,24.99488133
70,1,1,2,71,00:22:08,00:00:07,0.86666736,3.0000023999999996,0.005102505309416678,-0.58875,-0.70125,1.04375,55.46667933,24.99488267
71,1,1,2,72,00:22:08,00:00:07,0.4861115,3.8055586000000003,0.0044684276272992,-0.715,-0.78375,1.0275,55.46667967,24.99488267
72,1,1,2,73,00:22:08,00:00:07,0.31111136,1.7500014,0.004769194639843593,-0.5387500000000001,-0.69875,0.895,55.46667983,24.99488283
73,1,1,2,74,00:22:08,00:00:07,0.0,3.1111136000000004,0.005329352342090605,-0.45,-0.5775,0.85375,55.46668017,24.99488283
74,1,1,2,75,00:22:08,00:00:07,0.0,0.0,0.006166179493363233,-0.1925,-0.57375,0.8775,55.46668017,24.99488267
75,1,1,2,76,00:22:08,00:00:07,0.0,0.0,0.005199128112596379,0.13375,-0.69,0.935,55.4666805,24.99488267
76,1,1,2,77,00:22:08,00:00:07,0.0,0.0,0.004826909987132718,-0.03,-0.60375,0.8425,55.4666805,24.99488267
77,1,1,2,78,00:22:08,00:00:07,0.0,0.0,0.003059205238909883,-0.06375,-0.61125,0.8325,55.46668083,24.994882500000003
78,1,1,2,79,00:22:08,00:00:07,0.0,0.0,0.00800006942200792,-0.1575,-0.64125,0.83375,55.46668100000001,24.99488233
79,1,1,2,80,00:22:09,00:00:08,0.0,0.0,0.0028390215371314306,-0.2275,-0.6174999999999999,0.82875,55.46668100000001,24.99488233
80,1,1,2,81,00:22:09,00:00:08,0.0,0.0,0.002076438413219776,-0.27,-0.595,0.82125,55.46668117,24.99488217
81,1,1,2,82,00:22:09,00:00:08,0.0,0.0,0.002979841847530596,-0.33375,-0.63875,0.86,55.46668100000001,24.99488217
82,1,1,2,83,00:22:09,00:00:08,0.0,0.0,0.006877401674694003,-0.385,-0.655,0.89375,55.46668100000001,24.99488233
83,1,1,2,84,00:22:09,00:00:08,0.0,0.0,0.00583024562168635,-0.24625,-0.70875,0.80125,55.46668100000001,24.99488233
84,1,1,2,85,00:22:09,00:00:08,0.0,0.0,0.0035223731918063205,-0.335,-0.72,0.79375,55.46668100000001,24.994882500000003
85,1,1,2,86,00:22:09,00:00:08,0.32777804,3.2777803999999997,0.006751875954574031,-0.42625,-0.63375,0.795,55.46668067,24.994882500000003
86,1,1,2,87,00:22:09,00:00:08,0.0,3.2777803999999997,0.004605822559037187,-0.32625,-0.6950000000000001,0.79,55.46668083,24.99488233
87,1,1,2,88,00:22:09,00:00:08,0.0,0.0,0.004275914187056769,-0.47375,-0.7375,0.83875,55.46668067,24.99488233
88,1,1,2,89,00:22:09,00:00:08,0.40833366,4.0833366,0.0076856611477216594,-0.4925,-0.71375,0.8675,55.46668033,24.994882
89,1,1,2,90,00:22:10,00:00:09,0.40833366,4.0833366,0.003018071841652594,-0.6487499999999999,-0.7175,0.9175,55.46668033,24.994882
90,1,1,2,91,00:22:10,00:00:09,0.0,0.0,0.002707381069014753,-0.57375,-0.675,0.95375,55.46668017,24.99488183
91,1,1,2,92,00:22:10,00:00:09,0.38055586,3.8055586000000003,0.0053906546269892105,-0.31375,-0.56875,1.005,55.46667983,24.99488167
92,1,1,2,93,00:22:10,00:00:09,0.45555592,0.7500005999999999,0.004562649810618861,-0.0675,-0.33375,0.9475,55.46667933,24.9948815
93,1,1,2,94,00:22:10,00:00:09,0.60277826,1.4722233999999998,0.0054268058894368,0.1825,-0.0125,0.835,55.46667917,24.994881
94,1,1,2,95,00:22:10,00:00:09,0.7638895,1.6111124,0.004192079992989108,0.29125,0.12125,0.70625,55.4666785,24.99488033
95,1,1,2,96,00:22:10,00:00:09,0.96388966,2.0000016,0.006096171262033405,0.31,0.36625,0.65625,55.46667783,24.99488
96,1,1,2,97,00:22:10,00:00:09,0.9166674000000001,0.4722226,0.012882769841351704,0.095,0.865,0.8512500000000001,55.4666775,24.99487917
97,1,1,2,98,00:22:10,00:00:09,1.13333424,2.1666684,0.011123455650930151,-0.07,0.74,0.93375,55.46667717,24.99487817
98,1,1,2,99,00:22:10,00:00:09,1.05277862,0.8055561999999998,0.004909503248072203,-0.04875,0.58875,0.705,55.46667683,24.99487717
99,1,1,2,100,00:22:11,00:00:10,1.05277862,0.8055561999999998,0.00310349341778614,-0.13625,0.64125,0.72125,55.46667683,24.99487717
100,1,1,2,101,00:22:11,00:00:10,0.93333408,0.138889,0.0030532969425121213,-0.14,0.665,0.7225,55.4666765,24.99487567
101,1,1,2,102,00:22:11,00:00:10,0.7638895,1.6944457999999998,0.005350008336473796,-0.13125,0.94625,0.7112499999999999,55.46667633,24.994875
102,1,1,2,103,00:22:11,00:00:10,0.60833382,1.5555568000000002,0.005553882202977675,0.015,0.9225,0.7212500000000001,55.46667617,24.99487467
103,1,1,2,104,00:22:11,00:00:10,0.60277826,0.055555600000000004,0.008008677095108864,0.1225,0.8325,0.83,55.46667583,24.99487417
104,1,1,2,105,00:22:11,00:00:10,0.58888936,0.138889,0.004722717875404689,0.11375,0.61625,0.64375,55.46667583,24.99487367
105,1,1,2,106,00:22:11,00:00:10,0.51944486,0.694445,0.003179467265593437,0.1025,0.74375,0.5862499999999999,55.46667567,24.99487317
106,1,1,2,107,00:22:11,00:00:10,0.72500058,2.0555572,0.0036083203873350906,0.14625,0.9,0.605,55.46667583,24.9948725
107,1,1,2,108,00:22:11,00:00:10,0.56111156,1.6388901999999999,0.01620636721311057,-0.29125,0.8775,0.65625,55.46667617,24.994872
108,1,1,2,109,00:22:11,00:00:10,0.43055590000000005,1.3055566,0.009519050947395913,-0.29625,0.33125,0.87125,55.46667633,24.99487167
109,1,1,2,110,00:22:12,00:00:11,0.43055590000000005,1.3055566,0.0055728915382302,-0.12125,0.0375,0.81625,55.46667633,24.99487167
110,1,1,2,111,00:22:12,00:00:11,0.0,0.0,0.003018344994608661,-0.15375,-0.16,0.87875,55.4666765,24.994872
111,1,1,2,112,00:22:12,00:00:11,0.32222248,3.2222248,0.004500629685161193,-0.16875,-0.36,0.86625,55.46667617,24.994872
112,1,1,2,113,00:22:12,00:00:11,0.0,3.2222248,0.00545308409098289,-0.1025,-0.5825,0.86625,55.46667617,24.99487217
113,1,1,2,114,00:22:12,00:00:11,0.43888924,4.3888924000000005,0.004357253567308632,0.02125,-0.75375,0.90625,55.46667567,24.994872
114,1,1,2,115,00:22:12,00:00:11,0.38333364,0.555556,0.0035125649915471496,0.13,-0.87625,0.9,55.4666755,24.994872
115,1,1,2,116,00:22:12,00:00:11,0.50833374,1.250001,0.0037643183730688627,0.245,-0.98375,0.8875,55.46667483,24.99487183
116,1,1,2,117,00:22:12,00:00:11,0.5972227,0.8888896000000001,0.005346661075061868,0.3625,-1.09,0.94125,55.46667433,24.99487133
117,1,1,2,118,00:22:12,00:00:11,0.33888916,2.5833353999999997,0.004885681740753988,0.22,-1.04,0.855,55.46667417,24.99487167
118,1,1,2,119,00:22:12,00:00:11,0.0,3.3888915999999996,0.00320631202953891,0.19875,-1.01625,0.86375,55.46667417,24.99487133
119,1,1,2,120,00:22:13,00:00:12,0.0,3.3888915999999996,0.006861391293386856,0.1325,-1.0825,1.05375,55.46667417,24.99487133
120,1,1,2,121,00:22:13,00:00:12,0.0,0.0,0.00740480895432318,0.0575,-1.02625,1.0675,55.466674,24.99487117
121,1,1,2,122,00:22:13,00:00:12,0.36388918,3.6388917999999997,0.007243907303997111,0.02125,-0.5775,0.735,55.46667433,24.99487067
122,1,1,2,123,00:22:13,00:00:12,0.0,3.6388917999999997,0.007168355077979551,-0.00625,-0.21875,0.6425,55.46667433,24.99487067
123,1,1,2,124,00:22:13,00:00:12,0.45000036,4.500003599999999,0.0061797415155042355,0.04125,0.01375,0.745,55.46667467,24.99487067
124,1,1,2,125,00:22:13,00:00:12,0.5972227,1.4722233999999998,0.0042279813106586225,0.07125000000000001,0.22,0.84375,55.46667483,24.99487017
125,1,1,2,126,00:22:13,00:00:12,0.41388922,1.8333348000000003,0.003193343903443757,0.01625,0.4025,0.87,55.466675,24.994870000000002
126,1,1,2,127,00:22:13,00:00:12,0.47500038,0.6111116,0.002658826900006357,0.05125,0.44375,0.85875,55.46667517,24.99486967
127,1,1,2,128,00:22:13,00:00:12,0.34166694,1.3333343999999998,0.009840838137934169,0.001250000000000006,0.465,0.8325,55.46667517,24.9948695
128,1,1,2,129,00:22:13,00:00:12,0.0,3.4166693999999995,0.00814144579856563,-0.1025,0.545,0.9275,55.466675,24.99486933
129,1,1,2,130,00:22:14,00:00:13,0.0,3.4166693999999995,0.014413536209372944,0.03,0.6,0.93125,55.466675,24.99486933
130,1,1,2,131,00:22:14,00:00:13,0.0,0.0,0.006232391655897041,0.13,0.6,0.85375,55.46667517,24.99486867
131,1,1,2,132,00:22:14,00:00:13,0.0,0.0,0.0040276707815488175,-0.06625,0.52,0.89875,55.46667517,24.9948685
132,1,1,2,133,00:22:14,00:00:13,0.0,0.0,0.002293422396824666,-0.1075,0.59,0.8725,55.46667533,24.9948685
133,1,1,2,134,00:22:14,00:00:13,0.0,0.0,0.002573163331896229,-0.0075,0.55125,0.89375,55.4666755,24.9948685
134,1,1,2,135,00:22:14,00:00:13,0.0,0.0,0.002970760084392349,-0.0175,0.545,0.88625,55.46667567,24.99486833
135,1,1,2,136,00:22:14,00:00:13,0.0,0.0,0.003010665520134954,-0.025,0.6,0.86875,55.46667583,24.99486833
136,1,1,2,137,00:22:14,00:00:13,0.0,0.0,0.0027447655882802857,0.0,0.545,0.89625,55.466676,24.99486833
137,1,1,2,138,00:22:14,00:00:13,0.0,0.0,0.002757320231763623,-0.01125,0.5,0.90625,55.46667617,24.9948685
138,1,1,2,139,00:22:14,00:00:13,0.0,0.0,0.002960608831066161,0.09875,0.53625,0.89625,55.46667617,24.9948685
139,1,1,2,140,00:22:15,00:00:14,0.0,0.0,0.003371651553805033,0.11,0.5575,0.8925,55.46667617,24.9948685
140,1,1,2,141,00:22:15,00:00:14,0.0,0.0,0.002478467506624065,-0.01875,0.54625,0.9025,55.46667633,24.99486833
141,1,1,2,142,00:22:15,00:00:14,0.0,0.0,0.0022103619283984424,-0.02875,0.5325,0.89875,55.4666765,24.9948685
142,1,1,2,143,00:22:15,00:00:14,0.0,0.0,0.0019206322727489704,-0.045,0.56,0.8725,55.46667667,24.9948685
143,1,1,2,144,00:22:15,00:00:14,0.0,0.0,0.00371481642401256,-0.02875,0.69,0.81375,55.46667667,24.9948685
144,1,1,2,145,00:22:15,00:00:14,0.0,0.0,0.0023776746225548533,-0.02625,0.6975,0.7825,55.46667683,24.9948685
145,1,1,2,146,00:22:15,00:00:14,0.0,0.0,0.005581096159671203,0.0025,0.7775,0.715,55.466677000000004,24.99486833
146,1,1,2,147,00:22:15,00:00:14,0.0,0.0,0.003404440997834027,-0.06125,0.71875,0.77,55.46667717,24.99486833
147,1,1,2,148,00:22:15,00:00:14,0.0,0.0,0.0037650635816682226,-0.08,0.67375,0.79,55.46667733,24.99486833
148,1,1,2,149,00:22:15,00:00:14,0.0,0.0,0.003720975676211033,-0.06375,0.79875,0.745,55.4666775,24.99486833
149,1,1,2,150,00:22:16,00:00:15,0.0,0.0,0.003379901611122033,-0.04,0.74875,0.74,55.4666775,24.99486833
150,1,1,2,151,00:22:16,00:00:15,0.0,0.0,0.0033525253634027305,-0.0012500000000000007,0.76625,0.74625,55.46667767,24.99486833
151,1,1,2,152,00:22:16,00:00:15,0.0,0.0,0.006486284118906617,-0.04,0.5700000000000001,0.79625,55.46667767,24.99486833
152,1,1,2,153,00:22:16,00:00:15,0.0,0.0,0.005537386283978286,-0.135,0.47875,0.755,55.46667767,24.9948685
153,1,1,2,154,00:22:16,00:00:15,0.0,0.0,0.00712148305438118,-0.10375,0.24625,0.7475,55.4666775,24.99486867
154,1,1,2,155,00:22:16,00:00:15,0.0,0.0,0.009252338139369615,0.0275,0.015,0.77875,55.46667733,24.99486867
155,1,1,2,156,00:22:16,00:00:15,0.35555584,3.5555584000000002,0.0057225621575716715,0.12,-0.2675,1.02375,55.46667717,24.99486883
156,1,1,2,157,00:22:16,00:00:15,0.0,3.5555584000000002,0.005970485100338771,0.1525,0.03,1.115,55.466677000000004,24.99486883
157,1,1,2,158,00:22:16,00:00:15,0.0,0.0,0.008769896262862632,0.21625,0.035,1.21375,55.46667683,24.9948685
158,1,1,2,159,00:22:16,00:00:15,0.0,0.0,0.009027017197431243,0.19125,0.07875,1.13875,55.46667667,24.99486833
159,1,1,2,160,00:22:17,00:00:16,0.0,0.0,0.01756300226205687,0.06875,0.31875,1.6125,55.46667667,24.99486833
160,1,1,2,161,00:22:17,00:00:16,0.44444480000000003,4.444448,0.020284676294711045,-0.015000000000000003,-0.19375,1.2775,55.46667733,24.994867499999998
161,1,1,2,162,00:22:17,00:00:16,0.0,4.444448,0.010689157539286252,-0.12625,-0.03375,0.8,55.46667733,24.994867499999998
162,1,1,2,163,00:22:17,00:00:16,0.42222256,4.2222256,0.00932350076257272,-0.065,0.6475,0.88875,55.46667767,24.994867000000003
163,1,1,2,164,00:22:17,00:00:16,0.86944514,4.4722258,0.005623060131947158,-0.0725,0.585,0.79375,55.46667817,24.99486633
164,1,1,2,165,00:22:17,00:00:16,0.5000004,3.6944474,0.0038688135915743147,0.00375,0.63625,0.84625,55.46667833,24.994866000000002
165,1,1,2,166,00:22:17,00:00:16,0.50277818,0.027777800000000002,0.009447659100851023,0.01875,0.69125,0.74,55.4666785,24.9948655
166,1,1,2,167,00:22:17,00:00:16,0.33055582,1.7222236000000002,0.006967952719755294,0.135,0.7975,0.73875,55.4666785,24.99486517
167,1,1,2,168,00:22:17,00:00:16,0.0,3.3055582,0.007231482912230597,0.0375,0.8425,0.72,55.46667867,24.99486483
168,1,1,2,169,00:22:17,00:00:16,0.0,0.0,0.003703251468654314,0.02,0.815,0.69875,55.46667883,24.99486467
169,1,1,2,170,00:22:18,00:00:17,0.0,0.0,0.004659128426169707,0.10625,0.84375,0.71375,55.46667883,24.99486467
170,1,1,2,171,00:22:18,00:00:17,0.0,0.0,0.007998244978578864,-0.05625,0.74,0.66625,55.466679000000006,24.9948645
171,1,1,2,172,00:22:18,00:00:17,0.0,0.0,0.005182103913929254,-0.065,0.81625,0.70625,55.46667933,24.9948645
172,1,1,2,173,00:22:18,00:00:17,0.0,0.0,0.007345494798278422,-0.02375,0.70125,0.70875,55.466679500000005,24.99486467
173,1,1,2,174,00:22:18,00:00:17,0.0,0.0,0.004810004365879585,-0.07,0.74625,0.78125,55.466679500000005,24.99486467
174,1,1,2,175,00:22:18,00:00:17,0.0,0.0,0.006719965935758691,-0.004999999999999999,0.73875,0.7775,55.46667967,24.99486467
175,1,1,2,176,00:22:18,00:00:17,0.0,0.0,0.006065919812862545,0.0625,0.76875,0.695,55.46667983,24.99486467
176,1,1,2,177,00:22:18,00:00:17,0.0,0.0,0.004037564811093776,0.02875,0.77,0.725,55.46667983,24.9948645
177,1,1,2,178,00:22:18,00:00:17,0.0,0.0,0.005544277840598381,0.00875,0.76625,0.72,55.466680000000004,24.99486467
178,1,1,2,179,00:22:18,00:00:17,0.0,0.0,0.005318794058825058,0.01375,0.80375,0.73375,55.466680000000004,24.9948645
179,1,1,2,180,00:22:19,00:00:18,0.0,0.0,0.0054773316635595565,0.08875,0.71625,0.72375,55.466680000000004,24.9948645
180,1,1,2,181,00:22:19,00:00:18,0.0,0.0,0.005398753184732066,0.11,0.6725,0.785,55.46668017,24.99486467
181,1,1,2,182,00:22:19,00:00:18,0.0,0.0,0.006207157952973683,0.11125,0.70125,0.77875,55.466680000000004,24.9948645
182,1,1,2,183,00:22:19,00:00:18,0.0,0.0,0.005442814921207661,0.0825,0.7225,0.80375,55.46668017,24.99486467
183,1,1,2,184,00:22:19,00:00:18,0.0,0.0,0.0038558815385711437,0.04375,0.63,0.8275,55.46668017,24.9948645
184,1,1,2,185,00:22:19,00:00:18,0.0,0.0,0.002745460969871715,0.105,0.69,0.7925,55.46668017,24.99486467
185,1,1,2,186,00:22:19,00:00:18,0.0,0.0,0.0026678281426170927,0.0875,0.6875,0.7875,55.46668017,24.9948645
186,1,1,2,187,00:22:19,00:00:18,0.0,0.0,0.0018495682387268586,0.0675,0.72,0.77625,55.46668017,24.9948645
187,1,1,2,188,00:22:19,00:00:18,0.0,0.0,0.002556206208836011,0.0375,0.66875,0.7975,55.46668017,24.9948645
188,1,1,2,189,00:22:19,00:00:18,0.0,0.0,0.003125397547412944,0.02375,0.6475,0.845,55.46668017,24.9948645
189,1,1,2,190,00:22:20,00:00:19,0.0,0.0,0.004940026328072954,0.0625,0.66625,0.8,55.46668017,24.9948645
190,1,1,2,191,00:22:20,00:00:19,0.0,0.0,0.0050122727841446614,0.04875,0.6925,0.815,55.46668017,24.99486433
191,1,1,2,192,00:22:20,00:00:19,0.0,0.0,0.0024850561584707485,0.03,0.6775,0.80375,55.46668017,24.99486417
192,1,1,2,193,00:22:20,00:00:19,0.0,0.0,0.002922801425209325,0.0075,0.65625,0.8125,55.46668017,24.99486417
193,1,1,2,194,00:22:20,00:00:19,0.0,0.0,0.004739821869470698,0.0012500000000000007,0.6625,0.81125,55.46668033,24.99486417
194,1,1,2,195,00:22:20,00:00:19,0.0,0.0,0.005070630566591097,0.0625,0.70625,0.79125,55.46668033,24.994864
195,1,1,2,196,00:22:20,00:00:19,0.0,0.0,0.0033592734902832635,-0.0075,0.72125,0.7775,55.46668033,24.994864
196,1,1,2,197,00:22:20,00:00:19,0.0,0.0,0.0028293277454320104,-0.00375,0.685,0.80125,55.46668033,24.99486383
197,1,1,2,198,00:22:20,00:00:19,0.0,0.0,0.004801830028053581,0.01375,0.7025,0.79625,55.46668033,24.99486383
198,1,1,2,199,00:22:20,00:00:19,0.0,0.0,0.0020819060930868565,0.01,0.68625,0.8025,55.4666805,24.99486383
199,1,1,2,200,00:22:21,00:00:20,0.0,0.0,0.003737787608124053,0.02875,0.6725,0.805,55.4666805,24.99486383
200,1,1,2,201,00:22:21,00:00:20,0.0,0.0,0.0025285951858935013,0.05,0.705,0.8,55.4666805,24.99486367
201,1,1,2,202,00:22:21,00:00:20,0.0,0.0,0.0020223597821570753,0.02625,0.68875,0.80125,55.4666805,24.99486367
202,1,1,2,203,00:22:21,00:00:20,0.0,0.0,0.0019417187103582805,0.0475,0.685,0.7975,55.4666805,24.9948635
203,1,1,2,204,00:22:21,00:00:20,0.0,0.0,0.003055804384115888,0.055,0.69125,0.80125,55.4666805,24.9948635
204,1,1,2,205,00:22:21,00:00:20,0.0,0.0,0.00423442995282668,0.08,0.63625,0.8262499999999999,55.46668067,24.9948635
205,1,1,2,206,00:22:21,00:00:20,0.0,0.0,0.004908580254100071,0.07375,0.6975,0.8,55.46668067,24.9948635
206,1,1,2,207,00:22:21,00:00:20,0.0,0.0,0.003093353678550143,0.09625,0.66125,0.805,55.46668067,24.99486333
207,1,1,2,208,00:22:21,00:00:20,0.0,0.0,0.007142917297335945,0.1125,0.66125,0.80625,55.46668067,24.99486333
208,1,1,2,209,00:22:21,00:00:20,0.0,0.0,0.0055387437796891705,0.105,0.65375,0.7837500000000001,55.46668067,24.99486317
209,1,1,2,210,00:22:22,00:00:21,0.0,0.0,0.0051164607705133066,0.07625,0.655,0.82125,55.46668067,24.99486317
210,1,1,2,211,00:22:22,00:00:21,0.0,0.0,0.0026144416975915448,0.11875,0.65,0.8125,55.46668083,24.994863
211,1,1,2,212,00:22:22,00:00:21,0.0,0.0,0.0029553524228723323,0.0575,0.655,0.825,55.46668083,24.994863
212,1,1,2,213,00:22:22,00:00:21,0.0,0.0,0.0024077768676778236,0.08499999999999999,0.67,0.8225,55.46668100000001,24.994863
213,1,1,2,214,00:22:22,00:00:21,0.0,0.0,0.003322063223115613,0.08375,0.67875,0.81,55.46668100000001,24.99486283
214,1,1,2,215,00:22:22,00:00:21,0.0,0.0,0.0022669453642639318,0.08,0.66125,0.81625,55.46668117,24.99486283
215,1,1,2,216,00:22:22,00:00:21,0.0,0.0,0.0021270932453262155,0.0725,0.67,0.83125,55.46668117,24.99486267
216,1,1,2,217,00:22:22,00:00:21,0.0,0.0,0.0027840648206970127,0.0525,0.6525,0.80625,55.46668117,24.99486267
217,1,1,2,218,00:22:22,00:00:21,0.0,0.0,0.0024639423357009547,0.075,0.65875,0.8262499999999999,55.46668117,24.99486267
218,1,1,2,219,00:22:22,00:00:21,0.0,0.0,0.0015825311518713908,0.0725,0.645,0.8225,55.46668117,24.99486267
219,1,1,2,220,00:22:23,00:00:22,0.0,0.0,0.0020454495689686773,0.06625,0.64375,0.82625,55.46668117,24.99486267
220,1,1,2,221,00:22:23,00:00:22,0.0,0.0,0.0036347598428209827,0.0475,0.6125,0.84125,55.46668117,24.9948625
221,1,1,2,222,00:22:23,00:00:22,0.0,0.0,0.0037539210225169,0.14,0.6575,0.79625,55.46668117,24.9948625
222,1,1,2,223,00:22:23,00:00:22,0.0,0.0,0.0036754023646254743,0.03375,0.6799999999999999,0.8075,55.46668117,24.9948625
223,1,1,2,224,00:22:23,00:00:22,0.0,0.0,0.002718175357961423,-0.00375,0.7125,0.78125,55.46668133,24.99486233
224,1,1,2,225,00:22:23,00:00:22,0.0,0.0,0.002638780113175965,-0.055,0.67,0.82,55.46668133,24.99486233
225,1,1,2,226,00:22:23,00:00:22,0.0,0.0,0.0021160248009252803,-0.05,0.675,0.81875,55.46668149999999,24.99486233
226,1,1,2,227,00:22:23,00:00:22,0.0,0.0,0.0051141652510734,-0.09125,0.75,0.7475,55.46668149999999,24.99486233
227,1,1,2,228,00:22:23,00:00:22,0.0,0.0,0.0035788987776300186,-0.095,0.715,0.7725,55.46668149999999,24.99486217
228,1,1,2,229,00:22:23,00:00:22,0.0,0.0,0.0046280465612579145,-0.0275,0.67625,0.77875,55.46668167,24.99486217
229,1,1,2,230,00:22:24,00:00:23,0.0,0.0,0.0021875992219753857,-0.025,0.74375,0.77625,55.46668167,24.99486217
230,1,1,2,231,00:22:24,00:00:23,0.0,0.0,0.0028012877546875078,-0.05875,0.71125,0.7675,55.46668149999999,24.994862
231,1,1,2,232,00:22:24,00:00:23,0.0,0.0,0.0033565570064704483,-0.06,0.73375,0.7625,55.46668167,24.994862
232,1,1,2,233,00:22:24,00:00:23,0.0,0.0,0.0028837455318401714,-0.0425,0.6950000000000001,0.76875,55.46668167,24.994862
233,1,1,2,234,00:22:24,00:00:23,0.0,0.0,0.0033591946647915445,-0.0525,0.72125,0.765,55.46668167,24.994862
234,1,1,2,235,00:22:24,00:00:23,0.0,0.0,0.0031948093244800672,-0.07875,0.7575000000000001,0.75,55.46668183,24.994862
235,1,1,2,236,00:22:24,00:00:23,0.0,0.0,0.002870880266581593,-0.08875,0.7325,0.75,55.46668183,24.994862
236,1,1,2,237,00:22:24,00:00:23,0.0,0.0,0.003282068812852963,-0.09375,0.7825,0.73375,55.46668183,24.99486183
237,1,1,2,238,00:22:24,00:00:23,0.0,0.0,0.002882699328898336,-0.1075,0.6825,0.795,55.46668183,24.994862
238,1,1,2,239,00:22:24,00:00:23,0.0,0.0,0.0019287801768728663,-0.035,0.61875,0.84125,55.46668183,24.994862
239,1,1,2,240,00:22:25,00:00:24,0.0,0.0,0.0016445290056300286,-0.0075000000000000015,0.59625,0.8675,55.46668183,24.994862
240,1,1,2,241,00:22:25,00:00:24,0.0,0.0,0.002370187553182761,0.0,0.59125,0.8724999999999999,55.46668167,24.99486217
241,1,1,2,242,00:22:25,00:00:24,0.0,0.0,0.0016736131321326564,-0.005,0.6075,0.86875,55.46668149999999,24.99486217
242,1,1,2,243,00:22:25,00:00:24,0.0,0.0,0.0008535533905932724,0.00625,0.59625,0.87,55.46668149999999,24.994862
243,1,1,2,244,00:22:25,00:00:24,0.0,0.0,0.0009562851924841117,0.02375,0.5962500000000001,0.86875,55.46668149999999,24.994862
244,1,1,2,245,00:22:25,00:00:24,0.0,0.0,0.0012580618877807465,0.04125,0.56875,0.87375,55.46668133,24.994862
245,1,1,2,246,00:22:25,00:00:24,0.0,0.0,0.001228553390593272,0.04625,0.58125,0.86125,55.46668133,24.994862
246,1,1,2,247,00:22:25,00:00:24,0.0,0.0,0.001690923032817919,0.04625,0.62,0.8375,55.46668133,24.994862
247,1,1,2,248,00:22:25,00:00:24,0.0,0.0,0.001531576045277192,0.0175,0.6475,0.8262499999999999,55.46668133,24.99486183
248,1,1,2,249,00:22:25,00:00:24,0.0,0.0,0.0018871386236950765,0.0075,0.68875,0.81,55.46668149999999,24.99486183
249,1,1,2,250,00:22:26,00:00:25,0.0,0.0,0.0016816750199134046,-0.02375,0.69625,0.78625,55.46668149999999,24.99486183
250,1,1,2,251,00:22:26,00:00:25,0.0,0.0,0.0015088834764831838,-0.03625,0.69375,0.80625,55.46668167,24.99486183
251,1,1,2,252,00:22:26,00:00:25,0.0,0.0,0.001405330085889913,-0.00625,0.65625,0.8362499999999999,55.46668167,24.99486167
252,1,1,2,253,00:22:26,00:00:25,0.0,0.0,0.0017366152783740189,-0.01125,0.64,0.8412499999999999,55.46668167,24.99486167
253,1,1,2,254,00:22:26,00:00:25,0.0,0.0,0.0031614726819699703,3.4694469519536144e-19,0.68875,0.80875,55.46668183,24.99486167
254,1,1,2,255,00:22:26,00:00:25,0.0,0.0,0.004289519676657349,0.02375,0.77875,0.74625,55.46668183,24.9948615
255,1,1,2,256,00:22:26,00:00:25,0.0,0.0,0.0038505719894656814,0.05,0.775,0.74375,55.46668199999999,24.9948615
256,1,1,2,257,00:22:26,00:00:25,0.0,0.0,0.003437607842635659,0.0575,0.7262500000000001,0.7475,55.46668199999999,24.9948615
257,1,1,2,258,00:22:26,00:00:25,0.0,0.0,0.0034089701679503245,0.08375,0.67625,0.79,55.46668199999999,24.9948615
258,1,1,2,259,00:22:26,00:00:25,0.0,0.0,0.002513565812864241,0.02125,0.66,0.78,55.46668183,24.9948615
259,1,1,2,260,00:22:27,00:00:26,0.0,0.0,0.0030198018194598233,0.035,0.675,0.77875,55.46668183,24.9948615
260,1,1,2,261,00:22:27,00:00:26,0.0,0.0,0.00346655056517231,0.015,0.67,0.81,55.46668199999999,24.9948615
261,1,1,2,262,00:22:27,00:00:26,0.0,0.0,0.003603637448094875,-0.005,0.71375,0.79125,55.46668199999999,24.9948615
262,1,1,2,263,00:22:27,00:00:26,0.0,0.0,0.0035343086106302875,-0.01375,0.7425,0.74625,55.46668217,24.9948615
263,1,1,2,264,00:22:27,00:00:26,0.0,0.0,0.0021676444896781273,-0.00875,0.75375,0.775,55.46668217,24.9948615
264,1,1,2,265,00:22:27,00:00:26,0.0,0.0,0.0021134668382280283,0.03,0.70875,0.77125,55.46668217,24.9948615
265,1,1,2,266,00:22:27,00:00:26,0.0,0.0,0.0025498590915199377,0.02125,0.66,0.7825,55.46668217,24.9948615
266,1,1,2,267,00:22:27,00:00:26,0.0,0.0,0.0043255683282491094,0.0375,0.68375,0.79625,55.46668217,24.9948615
267,1,1,2,268,00:22:27,00:00:26,0.0,0.0,0.002339347080264859,0.0125,0.62625,0.8325,55.46668217,24.9948615
268,1,1,2,269,00:22:27,00:00:26,0.0,0.0,0.0036123089409315283,0.02625,0.62875,0.87375,55.46668217,24.9948615
269,1,1,2,270,00:22:28,00:00:27,0.0,0.0,0.0037979012953997843,0.03375,0.565,0.8375,55.46668217,24.9948615
270,1,1,2,271,00:22:28,00:00:27,0.0,0.0,0.005176753763674296,0.00625,0.77,0.72,55.46668233,24.99486133
271,1,1,2,272,00:22:28,00:00:27,0.0,0.0,0.0033650480259769786,-0.10625,0.94125,0.63,55.46668267,24.99486117
272,1,1,2,273,00:22:28,00:00:27,0.0,0.0,0.002471587379343168,-0.1175,0.88625,0.5875,55.466682999999996,24.994861
273,1,1,2,274,00:22:28,00:00:27,0.0,0.0,0.0016778710978288694,-0.09625,0.84625,0.6537499999999999,55.46668317,24.99486083
274,1,1,2,275,00:22:28,00:00:27,0.0,0.0,0.0020537801768728665,-0.052500000000000005,0.86125,0.6637500000000001,55.466682999999996,24.99486083
275,1,1,2,276,00:22:28,00:00:27,0.0,0.0,0.002154105572921497,0.03875,0.85375,0.6675,55.46668283,24.99486083
276,1,1,2,277,00:22:28,00:00:27,0.0,0.0,0.0026144717335699124,0.1175,0.7987500000000001,0.665,55.46668283,24.99486067
277,1,1,2,278,00:22:28,00:00:27,0.0,0.0,0.0022217839092610733,0.1475,0.7575000000000001,0.70375,55.46668267,24.99486067
278,1,1,2,279,00:22:28,00:00:27,0.0,0.0,0.0020458288026668748,0.125,0.80125,0.7275,55.4666825,24.99486067
279,1,1,2,280,00:22:29,00:00:28,0.0,0.0,0.0037606946005338203,0.06375,0.73,0.755,55.4666825,24.99486067
280,1,1,2,281,00:22:29,00:00:28,0.0,0.0,0.002628496211257289,0.04,0.6637500000000001,0.785,55.4666825,24.994861
281,1,1,2,282,00:22:29,00:00:28,0.0,0.0,0.0017347893971888565,0.05375,0.60375,0.84125,55.46668233,24.99486117
282,1,1,2,283,00:22:29,00:00:28,0.0,0.0,0.0017540767359143284,0.04,0.5875,0.8775,55.46668233,24.99486133
283,1,1,2,284,00:22:29,00:00:28,0.0,0.0,0.002325576066333341,0.00875,0.53375,0.9075,55.46668217,24.99486133
284,1,1,2,285,00:22:29,00:00:28,0.0,0.0,0.0027960926840379144,0.0325,0.52625,0.9075,55.46668217,24.9948615
285,1,1,2,286,00:22:29,00:00:28,0.0,0.0,0.003225019895253539,0.01875,0.5825,0.86875,55.46668199999999,24.99486167
286,1,1,2,287,00:22:29,00:00:28,0.0,0.0,0.0029280408253741035,0.02,0.53625,0.905,55.46668199999999,24.99486183
287,1,1,2,288,00:22:29,00:00:28,0.0,0.0,0.0014356601717798205,0.04,0.435,0.94375,55.46668183,24.99486183
288,1,1,2,289,00:22:29,00:00:28,0.0,0.0,0.001143283046242747,0.04875,0.4575,0.95125,55.46668167,24.99486183
289,1,1,2,290,00:22:30,00:00:29,0.0,0.0,0.001155330085889909,0.04,0.46375,0.93875,55.46668167,24.99486183
290,1,1,2,291,00:22:30,00:00:29,0.0,0.0,0.0010000000000000002,0.03,0.44625,0.945,55.46668149999999,24.994862
291,1,1,2,292,00:22:30,00:00:29,0.0,0.0,0.0011218364368360183,0.025,0.4725,0.945,55.46668133,24.994862
292,1,1,2,293,00:22:30,00:00:29,0.0,0.0,0.0017221618328846508,0.01375,0.48625,0.92875,55.46668133,24.99486217
293,1,1,2,294,00:22:30,00:00:29,0.0,0.0,0.0011830127018922182,0.0025,0.47375,0.935,55.46668117,24.99486217
294,1,1,2,295,00:22:30,00:00:29,0.0,0.0,0.002452787154759213,-0.03375,0.3875,0.98875,55.46668117,24.99486217
295,1,1,2,296,00:22:30,00:00:29,0.0,0.0,0.001951719515960652,0.0,0.4425,0.9475,55.46668100000001,24.99486217
296,1,1,2,297,00:22:30,00:00:29,0.0,0.0,0.0011950597415393818,0.0,0.46875,0.94375,55.46668100000001,24.99486217
297,1,1,2,298,00:22:30,00:00:29,0.0,0.0,0.001445059741539382,-0.00625,0.45375,0.9525,55.46668100000001,24.99486217
298,1,1,2,299,00:22:30,00:00:29,0.0,0.0,0.0011553300858899089,0.00625,0.455,0.94375,55.46668083,24.99486217
299,1,1,2,300,00:22:31,00:00:30,0.0,0.0,0.001195059741539385,0.01625,0.44,0.955,55.46668083,24.99486217
300,1,1,2,301,00:22:31,00:00:30,0.0,0.0,0.0009267766952966377,0.0075000000000000015,0.4475,0.94625,55.46668067,24.99486217
301,1,1,2,302,00:22:31,00:00:30,0.0,0.0,0.00037499999999999925,0.0,0.4625,0.93875,55.46668067,24.99486217
302,1,1,2,303,00:22:31,00:00:30,0.0,0.0,0.0012803300858899086,0.00875,0.46875,0.9325,55.46668067,24.99486217
303,1,1,2,304,00:22:31,00:00:30,0.0,0.0,0.000603553390593272,0.015,0.47,0.93625,55.46668067,24.99486217
304,1,1,2,305,00:22:31,00:00:30,0.0,0.0,0.0013098385830773835,0.0125,0.47125,0.94,55.46668067,24.994862
305,1,1,2,306,00:22:31,00:00:30,0.0,0.0,0.0009999999999999968,0.0125,0.475,0.93125,55.46668067,24.994862
306,1,1,2,307,00:22:31,00:00:30,0.0,0.0,0.00047855339059327273,0.01125,0.47375,0.9375,55.46668067,24.994862
307,1,1,2,308,00:22:31,00:00:30,0.0,0.0,0.0008321067811865464,0.0175,0.47375,0.93625,55.46668083,24.994862
308,1,1,2,309,00:22:31,00:00:30,0.0,0.0,0.001246836436836019,0.02125,0.48,0.93375,55.46668083,24.994862
309,1,1,2,310,00:22:32,00:00:31,0.0,0.0,0.0008017766952966365,0.02375,0.475,0.93375,55.46668083,24.994862
310,1,1,2,311,00:22:32,00:00:31,0.0,0.0,0.0010580127018922183,0.02125,0.48875,0.9275,55.46668083,24.994862
311,1,1,2,312,00:22:32,00:00:31,0.0,0.0,0.0011950597415393825,0.02125,0.48125,0.93,55.46668100000001,24.99486183
312,1,1,2,313,00:22:32,00:00:31,0.0,0.0,0.0010303300858899088,0.0175,0.49,0.9275,55.46668100000001,24.99486183
313,1,1,2,314,00:22:32,00:00:31,0.0,0.0,0.0008017766952966352,0.025,0.47375,0.93625,55.46668117,24.99486183
314,1,1,2,315,00:22:32,00:00:31,0.0,0.0,0.0006767766952966354,0.025,0.47875,0.9325,55.46668117,24.99486183
315,1,1,2,316,00:22:32,00:00:31,0.0,0.0,0.0008535533905932733,0.022500000000000003,0.47625,0.93625,55.46668117,24.99486183
316,1,1,2,317,00:22:32,00:00:31,0.0,0.0,0.0006249999999999997,0.018750000000000003,0.4825,0.93125,55.46668117,24.99486183
317,1,1,2,318,00:22:32,00:00:31,0.0,0.0,0.0013200597415393815,0.0175,0.48625,0.93,55.46668117,24.99486183
318,1,1,2,319,00:22:32,00:00:31,0.0,0.0,0.0011250000000000003,0.02,0.49125,0.925,55.46668117,24.99486183
319,1,1,2,320,00:22:33,00:00:32,0.0,0.0,0.0012803300858899099,0.02,0.5,0.925,55.46668117,24.99486183
320,1,1,2,321,00:22:33,00:00:32,0.0,0.0,0.0015486131321326545,0.01625,0.4775,0.93625,55.46668133,24.99486183
321,1,1,2,322,00:22:33,00:00:32,0.0,0.0,0.0016633919736706575,0.0,0.47875,0.90625,55.46668117,24.994862
322,1,1,2,323,00:22:33,00:00:32,0.0,0.0,0.002911767313255487,0.0475,0.45125,0.9625,55.46668133,24.994862
323,1,1,2,324,00:22:33,00:00:32,0.0,0.0,0.0019878618406204587,0.01625,0.42625,0.9475,55.46668117,24.994862
324,1,1,2,325,00:22:33,00:00:32,0.0,0.0,0.0011727915434302215,0.0225,0.44125,0.95375,55.46668117,24.99486217
325,1,1,2,326,00:22:33,00:00:32,0.0,0.0,0.0011035533905932762,0.035,0.43875,0.9575,55.46668117,24.99486217
326,1,1,2,327,00:22:33,00:00:32,0.0,0.0,0.0012165063509461088,0.02375,0.4575,0.945,55.46668117,24.99486217
327,1,1,2,328,00:22:33,00:00:32,0.0,0.0,0.0006035533905932733,0.0275,0.4775,0.92625,55.46668133,24.99486217
328,1,1,2,329,00:22:33,00:00:32,0.0,0.0,0.0008017766952966364,0.02625,0.48125,0.9275,55.46668133,24.99486217
329,1,1,2,330,00:22:34,00:00:33,0.0,0.0,0.0008017766952966372,0.03125,0.50625,0.92375,55.46668133,24.99486217
330,1,1,2,331,00:22:34,00:00:33,0.0,0.0,0.0012468364368360206,0.03375,0.4975,0.92375,55.46668149999999,24.994862
331,1,1,2,332,00:22:34,00:00:33,0.0,0.0,0.000551776695296637,0.0325,0.5087499999999999,0.91625,55.46668149999999,24.994862
332,1,1,2,333,00:22:34,00:00:33,0.0,0.0,0.000643283046242747,0.02875,0.515,0.91125,55.46668149999999,24.994862
333,1,1,2,334,00:22:34,00:00:33,0.0,0.0,0.0008200597415393847,0.03,0.51125,0.915,55.46668167,24.994862
334,1,1,2,335,00:22:34,00:00:33,0.0,0.0,0.000780330085889912,0.02625,0.5125,0.91875,55.46668167,24.994862
335,1,1,2,336,00:22:34,00:00:33,0.0,0.0,0.0007165063509461106,0.03,0.51125,0.92125,55.46668167,24.994862
336,1,1,2,337,00:22:34,00:00:33,0.0,0.0,0.0010812851924841141,0.02375,0.5125,0.91875,55.46668167,24.994862
337,1,1,2,338,00:22:34,00:00:33,0.0,0.0,0.0014007198752389602,0.03,0.48375,0.965,55.46668167,24.99486183
338,1,1,2,339,00:22:34,00:00:33,0.0,0.0,0.005236954247735369,0.0625,0.56375,0.82875,55.46668183,24.994862
339,1,1,2,340,00:22:35,00:00:34,0.0,0.0,0.004083076779530983,0.06375,0.6625,0.805,55.46668183,24.994862
340,1,1,2,341,00:22:35,00:00:34,0.0,0.0,0.0023203710755877677,0.01875,0.5425,0.88875,55.46668183,24.994862
341,1,1,2,342,00:22:35,00:00:34,0.0,0.0,0.003312552729006348,-0.12625,0.51,0.8625,55.46668167,24.99486217
342,1,1,2,343,00:22:35,00:00:34,0.0,0.0,0.003311404399853101,-0.26375,0.40375,0.9,55.46668167,24.99486233
343,1,1,2,344,00:22:35,00:00:34,0.31388914,3.1388914,0.006617695406948503,-0.2875,0.2475,0.91625,55.46668149999999,24.99486267
344,1,1,2,345,00:22:35,00:00:34,0.47777816,1.6388901999999999,0.0043316066760943,-0.48125,0.1025,0.92625,55.46668117,24.994863
345,1,1,2,346,00:22:35,00:00:34,0.40555588,0.7222228,0.00300611049327655,-0.64625,0.03375,0.96875,55.46668100000001,24.99486333
346,1,1,2,347,00:22:35,00:00:34,0.0,4.0555588,0.004850520173857954,-0.72875,-0.12625,1.06,55.46668100000001,24.9948635
347,1,1,2,348,00:22:35,00:00:34,0.0,0.0,0.0038715977257588563,-0.7125,-0.045,1.02125,55.46668083,24.99486367
348,1,1,2,349,00:22:35,00:00:34,0.0,0.0,0.004065513519828097,-0.5599999999999999,0.00875,0.97375,55.46668100000001,24.99486367
349,1,1,2,350,00:22:36,00:00:35,0.0,0.0,0.004325307494950744,-0.23125,0.26,0.87125,55.46668100000001,24.99486367
350,1,1,2,351,00:22:36,00:00:35,0.54722266,5.4722266,0.004095628223551868,0.015,0.4275,0.83,55.46668167,24.99486283
351,1,1,2,352,00:22:36,00:00:35,0.61388938,0.6666671999999999,0.004227074324692075,0.18375,0.59625,0.8175,55.46668199999999,24.99486217
352,1,1,2,353,00:22:36,00:00:35,0.60833382,0.055555600000000004,0.0028485863712359345,0.21625,0.66,0.7675,55.46668217,24.99486183
353,1,1,2,354,00:22:36,00:00:35,0.61944494,0.11111120000000001,0.0038793884702590813,0.1075,0.75375,0.7212500000000001,55.46668233,24.99486133
354,1,1,2,355,00:22:36,00:00:35,0.38888920000000005,2.3055574,0.0029826990548861235,0.03875,0.78125,0.70625,55.4666825,24.99486117
355,1,1,2,356,00:22:36,00:00:35,0.3611114,0.277778,0.0028015081075471364,-0.0225,0.7625,0.70375,55.46668283,24.994861
356,1,1,2,357,00:22:36,00:00:35,0.0,3.611114,0.0019013449340234945,-0.08625000000000001,0.8475,0.6575,55.466682999999996,24.994861
357,1,1,2,358,00:22:36,00:00:35,0.0,0.0,0.0013607936896715851,-0.14125,0.88,0.6125,55.46668317,24.994861
358,1,1,2,359,00:22:36,00:00:35,0.0,0.0,0.001600389827429295,-0.16625,0.84625,0.6175,55.46668333,24.994861
359,1,1,2,360,00:22:37,00:00:36,0.0,0.0,0.0016222608075208624,-0.15875,0.85875,0.625,55.46668333,24.994861
360,1,1,2,361,00:22:37,00:00:36,0.0,0.0,0.001423613132132657,-0.1375,0.86,0.61,55.466683499999995,24.994861
361,1,1,2,362,00:22:37,00:00:36,0.0,0.0,0.0018213057009266649,-0.12875,0.8475,0.62,55.466683499999995,24.994861
362,1,1,2,363,00:22:37,00:00:36,0.0,0.0,0.0015194838686433789,-0.08374999999999999,0.915,0.5675,55.466683499999995,24.994861
363,1,1,2,364,00:22:37,00:00:36,0.0,0.0,0.0012624714103320065,-0.0975,0.89,0.58375,55.46668367,24.99486083
364,1,1,2,365,00:22:37,00:00:36,0.0,0.0,0.0015901686689672966,-0.115,0.87375,0.60625,55.46668367,24.994861
365,1,1,2,366,00:22:37,00:00:36,0.0,0.0,0.001183012701892217,-0.1225,0.8475,0.6162500000000001,55.46668367,24.994861
366,1,1,2,367,00:22:37,00:00:36,0.0,0.0,0.0009785533905932774,-0.13375,0.8575,0.6075,55.46668367,24.994861
367,1,1,2,368,00:22:37,00:00:36,0.0,0.0,0.0013321067811865493,-0.1275,0.8925,0.595,55.46668367,24.994861
368,1,1,2,369,00:22:37,00:00:36,0.0,0.0,0.001381084449740535,-0.13125,0.87,0.595,55.46668367,24.99486083
369,1,1,2,370,00:22:38,00:00:37,0.0,0.0,0.0010700597415393832,-0.11375,0.86,0.6112500000000001,55.46668367,24.99486083
370,1,1,2,371,00:22:38,00:00:37,0.0,0.0,0.0008932830462427465,-0.10375,0.85875,0.6125,55.46668383,24.99486083
371,1,1,2,372,00:22:38,00:00:37,0.0,0.0,0.0005517766952966368,-0.1,0.87125,0.60375,55.466683999999994,24.99486083
372,1,1,2,373,00:22:38,00:00:37,0.0,0.0,0.0008535533905932753,-0.0975,0.86875,0.6075,55.466683999999994,24.99486083
373,1,1,2,374,00:22:38,00:00:37,0.0,0.0,0.0015383919736706585,-0.0875,0.87,0.605,55.46668417,24.99486067
374,1,1,2,375,00:22:38,00:00:37,0.0,0.0,0.0009785533905932746,-0.07125,0.8675,0.6075,55.46668433,24.9948605
375,1,1,2,376,00:22:38,00:00:37,0.0,0.0,0.0008932830462427465,-0.06125,0.8775,0.605,55.46668433,24.9948605
376,1,1,2,377,00:22:38,00:00:37,0.0,0.0,0.0010303300858899107,-0.06375,0.86625,0.61,55.4666845,24.99486033
377,1,1,2,378,00:22:38,00:00:37,0.0,0.0,0.0011553300858899106,-0.0675,0.87125,0.6075,55.4666845,24.99486033
378,1,1,2,379,00:22:38,00:00:37,0.0,0.0,0.0008535533905932734,-0.0625,0.87625,0.6025,55.46668467,24.99486033
379,1,1,2,380,00:22:39,00:00:38,0.0,0.0,0.0014159756150367551,-0.0625,0.87125,0.6075,55.46668467,24.99486033
380,1,1,2,381,00:22:39,00:00:38,0.0,0.0,0.001176776695296637,-0.06999999999999999,0.875,0.6025,55.466685,24.99486017
381,1,1,2,382,00:22:39,00:00:38,0.0,0.0,0.0007165063509461095,-0.07375,0.8675,0.6025,55.46668483,24.99486017
382,1,1,2,383,00:22:39,00:00:38,0.0,0.0,0.0008535533905932724,-0.07125,0.87625,0.605,55.466685,24.99486
383,1,1,2,384,00:22:39,00:00:38,0.0,0.0,0.0012682830462427475,-0.08124999999999999,0.8525,0.61,55.466685,24.99486
384,1,1,2,385,00:22:39,00:00:38,0.0,0.0,0.001993275655654448,-0.0875,0.88625,0.595,55.466685,24.99486
385,1,1,2,386,00:22:39,00:00:38,0.0,0.0,0.0019237919748295433,-0.10625,0.88625,0.5975,55.46668517,24.99486
386,1,1,2,387,00:22:39,00:00:38,0.0,0.0,0.003142374864736232,-0.06125,0.88625,0.58875,55.46668517,24.99486
387,1,1,2,388,00:22:39,00:00:38,0.0,0.0,0.002298973436304013,-0.05,0.8425,0.6425,55.46668533,24.99485983
388,1,1,2,389,00:22:39,00:00:38,0.0,0.0,0.003069832813574713,0.00375,0.8362499999999999,0.64875,55.46668517,24.99485967
389,1,1,2,390,00:22:40,00:00:39,0.0,0.0,0.0027635658128642377,0.06875,0.86125,0.61875,55.46668517,24.99485967
390,1,1,2,391,00:22:40,00:00:39,0.0,0.0,0.002990019670131529,0.12125,0.845,0.6275,55.46668517,24.9948595
391,1,1,2,392,00:22:40,00:00:39,0.0,0.0,0.0018620396490588663,0.1375,0.8225,0.64,55.46668517,24.99485933
392,1,1,2,393,00:22:40,00:00:39,0.0,0.0,0.0017472608075208653,0.155,0.82875,0.6425,55.466685,24.99485933
393,1,1,2,394,00:22:40,00:00:39,0.0,0.0,0.001178022654683918,0.14125,0.8262499999999999,0.6425,55.466685,24.99485917
394,1,1,2,395,00:22:40,00:00:39,0.0,0.0,0.0013838834764831865,0.14625,0.83875,0.64125,55.466685,24.994858999999998
395,1,1,2,396,00:22:40,00:00:39,0.0,0.0,0.0011218364368360202,0.1575,0.8275,0.65125,55.466685,24.994858999999998
396,1,1,2,397,00:22:40,00:00:39,0.0,0.0,0.002174037502817502,0.145,0.8075,0.66125,55.466685,24.99485883
397,1,1,2,398,00:22:40,00:00:39,0.0,0.0,0.0021202773169327464,0.10875,0.81625,0.65625,55.466685,24.99485883
398,1,1,2,399,00:22:40,00:00:39,0.0,0.0,0.0022721120441369647,0.1475,0.8975,0.62125,55.46668517,24.99485883
399,1,1,2,400,00:22:41,00:00:40,0.0,0.0,0.002444927810805277,0.17625,0.92625,0.595,55.46668517,24.99485883
400,1,1,2,401,00:22:41,00:00:40,0.0,0.0,0.0031387392058723805,0.12375,0.7575000000000001,0.6925,55.466685,24.99485867
401,1,1,2,402,00:22:41,00:00:40,0.0,0.0,0.003125102228191787,0.08125,0.67375,0.7825,55.466685,24.99485883
402,1,1,2,403,00:22:41,00:00:40,0.38333364,3.8333364000000003,0.003380676075785812,0.001249999999999999,0.6637500000000001,0.7825,55.46668467,24.99485917
403,1,1,2,404,00:22:41,00:00:40,0.41111144,0.277778,0.0023566569809501197,-0.1075,0.57875,0.7825,55.46668433,24.99485933
404,1,1,2,405,00:22:41,00:00:40,0.57777824,1.666668,0.004788421137776677,-0.27125,0.41875,0.8425,55.466683999999994,24.99485983
405,1,1,2,406,00:22:41,00:00:40,0.66111164,0.833334,0.005745544131114215,-0.6175,0.03,0.835,55.46668367,24.99486033
406,1,1,2,407,00:22:41,00:00:40,0.58888936,0.7222228,0.005887875539357776,-0.84875,-0.2525,0.91,55.466682999999996,24.99486067
407,1,1,2,408,00:22:41,00:00:40,0.6527783,0.6388894,0.00913191690031899,-0.78,0.095,1.075,55.4666825,24.99486117
408,1,1,2,409,00:22:41,00:00:40,0.0,0.0,0.004354427036758575,-0.40125,0.1325,0.92,55.46668233,24.99486117
409,1,1,2,410,00:22:42,00:00:41,0.0,0.0,0.0021332394881718115,-0.32875,0.24375,0.93125,55.46668233,24.99486117
410,1,1,2,411,00:22:42,00:00:41,0.0,0.0,0.002978615037363646,-0.325,0.16875,0.98875,55.46668233,24.99486067
411,1,1,2,412,00:22:42,00:00:41,0.0,0.0,0.0030837321066459647,-0.54125,0.06,1.0875,55.46668217,24.9948605
412,1,1,2,413,00:22:42,00:00:41,0.0,0.0,0.003242449603009448,-0.415,0.06375,1.00875,55.46668217,24.9948605
413,1,1,2,414,00:22:42,00:00:41,0.0,0.0,0.004160684136198296,-0.09875,0.2275,0.95875,55.46668233,24.99486017
414,1,1,2,415,00:22:42,00:00:41,0.49444484,4.944448400000001,0.003246514152703409,0.0975,0.415,0.8775,55.46668267,24.9948595
415,1,1,2,416,00:22:42,00:00:41,0.58055602,0.8611118000000001,0.0033305043445945558,0.2725,0.595,0.75875,55.466682999999996,24.99485917
416,1,1,2,417,00:22:42,00:00:41,0.67500054,0.9444452,0.0016950597415393814,0.30875,0.7025,0.7075,55.46668333,24.9948585
417,1,1,2,418,00:22:42,00:00:41,0.416667,2.5833353999999997,0.00327864015895636,0.41625,0.8075,0.6725,55.46668367,24.99485833
418,1,1,2,419,00:22:42,00:00:41,0.0,4.16667,0.002253675393080449,0.49625,0.77375,0.67,55.46668383,24.99485817
419,1,1,2,420,00:22:43,00:00:42,0.0,4.16667,0.0041683084110185715,0.3675,0.76,0.6687500000000001,55.46668383,24.99485817
420,1,1,2,421,00:22:43,00:00:42,0.3055558,3.055558,0.008127651171245451,0.08625000000000001,0.61125,0.7225,55.46668417,24.9948585
421,1,1,2,422,00:22:43,00:00:42,0.57500046,2.6944466,0.006579790465170672,-0.2675,0.2675,0.905,55.46668433,24.994858999999998
422,1,1,2,423,00:22:43,00:00:42,0.9861119,4.1111144,0.006704777961020185,-0.56125,-0.0525,0.98125,55.466683999999994,24.99486
423,1,1,2,424,00:22:43,00:00:42,0.83611178,1.5000011999999998,0.004020671924812048,-0.53125,-0.1325,1.04875,55.466683999999994,24.99486067
424,1,1,2,425,00:22:43,00:00:42,0.6527783,1.8333348000000003,0.003880180236927217,-0.4375,-0.06625,1.1125,55.46668383,24.99486117
425,1,1,2,426,00:22:43,00:00:42,0.36388918,2.8888912,0.002302958588170428,-0.36125,-0.017499999999999998,1.055,55.46668383,24.99486133
426,1,1,2,427,00:22:43,00:00:42,0.0,3.6388917999999997,0.001816896178375405,-0.32375,0.11375,1.04625,55.46668367,24.99486133
427,1,1,2,428,00:22:43,00:00:42,0.0,0.0,0.001133061887780748,-0.265,0.15625,1.00625,55.46668383,24.99486117
428,1,1,2,429,00:22:43,00:00:42,0.0,0.0,0.0009053300858899107,-0.26375000000000004,0.20625,1.0,55.46668367,24.994861
429,1,1,2,430,00:22:44,00:00:43,0.0,0.0,0.001286566092485494,-0.23125,0.2375,0.98625,55.46668367,24.994861
430,1,1,2,431,00:22:44,00:00:43,0.0,0.0,0.0012285533905932757,-0.23875,0.25125,0.98125,55.46668367,24.99486083
431,1,1,2,432,00:22:44,00:00:43,0.0,0.0,0.0009785533905932748,-0.23875,0.255,0.985,55.46668367,24.99486067
432,1,1,2,433,00:22:44,00:00:43,0.0,0.0,0.0013838834764831839,-0.29000000000000004,0.24375,0.9975,55.46668383,24.9948605
433,1,1,2,434,00:22:44,00:00:43,0.0,0.0,0.0015392135623730945,-0.34625,0.24375,0.99875,55.46668383,24.9948605
434,1,1,2,435,00:22:44,00:00:43,0.0,0.0,0.002984949174382191,-0.32625,0.33625,0.96625,55.466683999999994,24.99486033
435,1,1,2,436,00:22:44,00:00:43,0.0,0.0,0.0018363592971940136,-0.28375,0.34500000000000003,0.94625,55.466683999999994,24.99486
436,1,1,2,437,00:22:44,00:00:43,0.0,0.0,0.0021499428206640165,-0.15375,0.41,0.91875,55.46668417,24.99485967
437,1,1,2,438,00:22:44,00:00:43,0.30000024,3.0000023999999996,0.002780173931917715,-0.05375,0.48125,0.89375,55.4666845,24.99485933
438,1,1,2,439,00:22:44,00:00:43,0.0,3.0000023999999996,0.002016123775561495,-0.03875,0.5575,0.87125,55.46668433,24.99485917
439,1,1,2,440,00:22:45,00:00:44,0.0,3.0000023999999996,0.0018301440404232022,-0.025,0.59375,0.85875,55.46668433,24.99485917
440,1,1,2,441,00:22:45,00:00:44,0.0,0.0,0.0018200597415393839,-0.04125,0.62125,0.85875,55.4666845,24.99485867
441,1,1,2,442,00:22:45,00:00:44,0.0,0.0,0.0017705332981127566,-0.0575,0.58875,0.865,55.4666845,24.9948585
442,1,1,2,443,00:22:45,00:00:44,0.0,0.0,0.0012883919736706587,-0.08875,0.5625,0.88375,55.46668467,24.99485833
443,1,1,2,444,00:22:45,00:00:44,0.0,0.0,0.0015688978396537047,-0.105,0.54875,0.9075,55.46668467,24.99485833
444,1,1,2,445,00:22:45,00:00:44,0.0,0.0,0.003684775449315816,-0.085,0.57875,0.84375,55.46668467,24.99485833
445,1,1,2,446,00:22:45,00:00:44,0.0,0.0,0.002368751107376186,-0.0975,0.56375,0.88,55.46668483,24.99485833
446,1,1,2,447,00:22:45,00:00:44,0.0,0.0,0.002891795229391481,-0.04625,0.61,0.88,55.466685,24.99485817
447,1,1,2,448,00:22:45,00:00:44,0.0,0.0,0.0038130322834837365,-0.09875,0.775,0.74625,55.46668517,24.99485817
448,1,1,2,449,00:22:45,00:00:44,0.0,0.0,0.002979844167065912,-0.24375,0.7362500000000001,0.685,55.46668533,24.994857999999997
449,1,1,2,450,00:22:46,00:00:45,0.0,0.0,0.0024292943113076947,-0.21375,0.755,0.695,55.46668533,24.994857999999997
450,1,1,2,451,00:22:46,00:00:45,0.0,0.0,0.0013911237755614935,-0.16125,0.775,0.715,55.46668533,24.994857999999997
451,1,1,2,452,00:22:46,00:00:45,0.0,0.0,0.001995434323476543,-0.10375,0.745,0.74375,55.46668517,24.99485783
452,1,1,2,453,00:22:46,00:00:45,0.0,0.0,0.0014745682387268574,-0.15,0.71875,0.77375,55.46668517,24.99485783
453,1,1,2,454,00:22:46,00:00:45,0.0,0.0,0.0018696771661547691,-0.16625,0.685,0.77125,55.46668517,24.99485783
454,1,1,2,455,00:22:46,00:00:45,0.0,0.0,0.0016178512849696024,-0.19,0.685,0.78625,55.46668517,24.99485783
455,1,1,2,456,00:22:46,00:00:45,0.0,0.0,0.002088141496823286,-0.1625,0.66375,0.7925,55.466685,24.99485783
456,1,1,2,457,00:22:46,00:00:45,0.0,0.0,0.002395264429462207,-0.16,0.65125,0.82125,55.466685,24.99485767
457,1,1,2,458,00:22:46,00:00:45,0.0,0.0,0.002479490786581712,-0.14750000000000002,0.635,0.8175,55.46668517,24.99485767
458,1,1,2,459,00:22:46,00:00:45,0.0,0.0,0.002482984183969197,-0.15375,0.65375,0.8150000000000001,55.46668517,24.994857500000002
459,1,1,2,460,00:22:47,00:00:46,0.0,0.0,0.002320326502821275,-0.11875,0.65125,0.80125,55.46668517,24.994857500000002
460,1,1,2,461,00:22:47,00:00:46,0.0,0.0,0.0017472608075208651,-0.11875,0.66,0.82,55.46668517,24.99485733
461,1,1,2,462,00:22:47,00:00:46,0.0,0.0,0.0016290767359143318,-0.1225,0.64375,0.825,55.46668517,24.99485717
462,1,1,2,463,00:22:47,00:00:46,0.0,0.0,0.0012909756150367524,-0.1225,0.66875,0.81375,55.46668517,24.99485717
463,1,1,2,464,00:22:47,00:00:46,0.0,0.0,0.00223017858367875,-0.08625,0.7112499999999999,0.7825,55.46668533,24.994857
464,1,1,2,465,00:22:47,00:00:46,0.0,0.0,0.003168920121992239,-0.04375,0.62375,0.84,55.46668517,24.994857
465,1,1,2,466,00:22:47,00:00:46,0.0,0.0,0.002824560684214768,0.005,0.61,0.85875,55.46668517,24.99485683
466,1,1,2,467,00:22:47,00:00:46,0.0,0.0,0.0029742099412242173,-0.0325,0.565,0.87875,55.466685,24.99485683
467,1,1,2,468,00:22:47,00:00:46,0.0,0.0,0.002133486258465591,-0.00375,0.5549999999999999,0.9025,55.466685,24.99485683
468,1,1,2,469,00:22:47,00:00:46,0.0,0.0,0.0013597893971888568,-0.01625,0.5375,0.895,55.46668517,24.994857
469,1,1,2,470,00:22:48,00:00:47,0.0,0.0,0.001600389827429293,-0.05,0.5375,0.90375,55.46668517,24.994857
470,1,1,2,471,00:22:48,00:00:47,0.0,0.0,0.001423613132132657,-0.03875,0.5225,0.90875,55.466685,24.99485717
471,1,1,2,472,00:22:48,00:00:47,0.0,0.0,0.0013838834764831837,-0.04375,0.53375,0.90125,55.466685,24.99485717
472,1,1,2,473,00:22:48,00:00:47,0.0,0.0,0.001082106781186548,-0.03625,0.54125,0.89875,55.466685,24.99485717
473,1,1,2,474,00:22:48,00:00:47,0.0,0.0,0.0014356601717798218,-0.025,0.56125,0.88875,55.46668517,24.99485717
474,1,1,2,475,00:22:48,00:00:47,0.0,0.0,0.0010477915434302198,-0.02125,0.56,0.88625,55.46668517,24.994857
475,1,1,2,476,00:22:48,00:00:47,0.0,0.0,0.0008017766952966357,-0.02625,0.57,0.8875,55.46668533,24.994857
476,1,1,2,477,00:22:48,00:00:47,0.0,0.0,0.0006432830462427465,-0.02625,0.58125,0.87625,55.46668533,24.994857
477,1,1,2,478,00:22:48,00:00:47,0.0,0.0,0.0008535533905932745,-0.025,0.58,0.8775,55.46668533,24.994857
478,1,1,2,479,00:22:48,00:00:47,0.0,0.0,0.0006767766952966365,-0.02375,0.59125,0.87375,55.46668533,24.99485683
479,1,1,2,480,00:22:49,00:00:48,0.0,0.0,0.000551776695296635,-0.025,0.5975,0.86375,55.46668533,24.99485683
480,1,1,2,481,00:22:49,00:00:48,0.0,0.0,0.0007285533905932713,-0.025,0.59875,0.86875,55.46668533,24.99485683
481,1,1,2,482,00:22:49,00:00:48,0.0,0.0,0.0008017766952966347,-0.03375,0.59125,0.8675,55.46668533,24.99485683
482,1,1,2,483,00:22:49,00:00:48,0.0,0.0,0.000978553390593273,-0.0275,0.5975,0.86375,55.46668533,24.99485683
483,1,1,2,484,00:22:49,00:00:48,0.0,0.0,0.0013495682387268564,-0.03375,0.59875,0.8675,55.46668533,24.99485683
484,1,1,2,485,00:22:49,00:00:48,0.0,0.0,0.0009267766952966369,-0.06,0.59125,0.865,55.46668533,24.99485683
485,1,1,2,486,00:22:49,00:00:48,0.0,0.0,0.0006250000000000008,-0.01625,0.60375,0.8625,55.46668517,24.994857
486,1,1,2,487,00:22:49,00:00:48,0.0,0.0,0.0011553300858899126,-0.02375,0.6075,0.8612500000000001,55.46668517,24.99485683
487,1,1,2,488,00:22:49,00:00:48,0.0,0.0,0.0014753898274292945,-0.06125,0.6012500000000001,0.8625,55.46668517,24.994857
488,1,1,2,489,00:22:49,00:00:48,0.0,0.0,0.0012285533905932774,-0.02375,0.61,0.855,55.46668517,24.994857
489,1,1,2,490,00:22:50,00:00:49,0.0,0.0,0.0005812851924841106,-0.0275,0.6175,0.85125,55.46668517,24.994857
490,1,1,2,491,00:22:50,00:00:49,0.0,0.0,0.0006035533905932747,-0.06375,0.6075,0.85,55.466685,24.99485683
491,1,1,2,492,00:22:50,00:00:49,0.0,0.0,0.001353553390593275,-0.0275,0.6225,0.85375,55.46668483,24.994857
492,1,1,2,493,00:22:50,00:00:49,0.0,0.0,0.0006767766952966367,-0.03125,0.61375,0.85,55.46668483,24.994857
493,1,1,2,494,00:22:50,00:00:49,0.0,0.0,0.0007682830462427484,-0.06125,0.60875,0.855,55.46668483,24.994857
494,1,1,2,495,00:22:50,00:00:49,0.0,0.0,0.0009785533905932748,-0.04,0.6125,0.85125,55.46668483,24.994857
495,1,1,2,496,00:22:50,00:00:49,0.0,0.0,0.00047855339059327305,-0.04875,0.6175,0.85,55.46668467,24.994857
496,1,1,2,497,00:22:50,00:00:49,0.0,0.0,0.0009571067811865496,-0.04375,0.6112500000000001,0.855,55.46668483,24.994857
497,1,1,2,498,00:22:50,00:00:49,0.0,0.0,0.0007285533905932723,-0.04125,0.61875,0.85,55.46668483,24.994857
498,1,1,2,499,00:22:50,00:00:49,0.0,0.0,0.00030177669529663664,-0.04625,0.6175,0.85,55.46668483,24.994857
499,1,1,2,500,00:22:51,00:00:50,0.0,0.0,0.0007803300858899093,-0.025,0.62,0.84875,55.46668483,24.994857
500,1,1,2,501,00:22:51,00:00:50,0.0,0.0,0.0008535533905932727,-0.01875,0.63125,0.85,55.46668467,24.99485683
501,1,1,2,502,00:22:51,00:00:50,0.0,0.0,0.0009785533905932713,-0.04,0.62625,0.83875,55.46668467,24.99485683
502,1,1,2,503,00:22:51,00:00:50,0.0,0.0,0.000978553390593273,-0.01625,0.635,0.84125,55.46668467,24.994857
503,1,1,2,504,00:22:51,00:00:50,0.0,0.0,0.0007285533905932719,-0.0125,0.63,0.83875,55.46668467,24.99485683
504,1,1,2,505,00:22:51,00:00:50,0.0,0.0,0.0008932830462427457,-0.00625,0.63125,0.8425,55.46668467,24.99485683
505,1,1,2,506,00:22:51,00:00:50,0.0,0.0,0.0008312851924841097,-0.02,0.62375,0.84375,55.46668467,24.99485683
506,1,1,2,507,00:22:51,00:00:50,0.0,0.0,0.0010303300858899077,-0.03125,0.62375,0.8475,55.46668467,24.99485683
507,1,1,2,508,00:22:51,00:00:50,0.0,0.0,0.000676776695296635,-0.0025,0.6225,0.84625,55.46668467,24.99485667
508,1,1,2,509,00:22:51,00:00:50,0.0,0.0,0.0009267766952966359,-0.005,0.63625,0.8475,55.46668483,24.99485667
509,1,1,2,510,00:22:52,00:00:51,0.0,0.0,0.0006767766952966372,0.0025,0.6325,0.835,55.46668483,24.99485667
510,1,1,2,511,00:22:52,00:00:51,0.0,0.0,0.0009450597415393864,0.0075000000000000015,0.6537499999999999,0.83,55.466685,24.9948565
511,1,1,2,512,00:22:52,00:00:51,0.0,0.0,0.00042677669529663577,0.0025,0.65625,0.82375,55.466685,24.99485633
512,1,1,2,513,00:22:52,00:00:51,0.0,0.0,0.0006249999999999997,0.022500000000000003,0.6625000000000001,0.82375,55.46668517,24.99485617
513,1,1,2,514,00:22:52,00:00:51,0.0,0.0,0.0009785533905932726,0.0025,0.67625,0.8075,55.46668533,24.994856
514,1,1,2,515,00:22:52,00:00:51,0.0,0.0,0.0012682830462427475,0.02375,0.6737500000000001,0.8075,55.4666855,24.994856
515,1,1,2,516,00:22:52,00:00:51,0.0,0.0,0.0009785533905932718,0.02625,0.6962499999999999,0.8037500000000001,55.46668567,24.99485583
516,1,1,2,517,00:22:52,00:00:51,0.0,0.0,0.0006767766952966384,0.0125,0.69125,0.79625,55.46668567,24.99485583
517,1,1,2,518,00:22:52,00:00:51,0.0,0.0,0.0009571067811865486,0.0225,0.70625,0.7975,55.46668583,24.99485567
518,1,1,2,519,00:22:52,00:00:51,0.0,0.0,0.0006767766952966388,0.00625,0.6975,0.78875,55.46668583,24.9948555
519,1,1,2,520,00:22:53,00:00:52,0.0,0.0,0.0006035533905932733,0.015,0.68375,0.8,55.46668583,24.9948555
520,1,1,2,521,00:22:53,00:00:52,0.0,0.0,0.0006767766952966383,0.02875,0.69875,0.79375,55.46668617,24.99485533
521,1,1,2,522,00:22:53,00:00:52,0.0,0.0,0.001143283046242746,0.022500000000000003,0.6875,0.7937500000000001,55.46668633,24.99485533
522,1,1,2,523,00:22:53,00:00:52,0.0,0.0,0.00042677669529663534,0.025,0.68125,0.805,55.46668633,24.99485533
523,1,1,2,524,00:22:53,00:00:52,0.0,0.0,0.0004999999999999991,0.022500000000000003,0.685,0.8,55.4666865,24.99485517
524,1,1,2,525,00:22:53,00:00:52,0.0,0.0,0.0009450597415393815,0.02,0.68125,0.8025,55.4666865,24.99485517
525,1,1,2,526,00:22:53,00:00:52,0.0,0.0,0.001051776695296635,0.01625,0.68,0.80125,55.46668667,24.99485517
526,1,1,2,527,00:22:53,00:00:52,0.0,0.0,0.0007499999999999996,0.0125,0.67875,0.81125,55.46668683,24.994854999999998
527,1,1,2,528,00:22:53,00:00:52,0.0,0.0,0.0011767766952966345,0.02,0.67625,0.8037500000000001,55.46668683,24.994854999999998
528,1,1,2,529,00:22:53,00:00:52,0.0,0.0,0.0004999999999999991,0.01375,0.67625,0.8125,55.466687,24.994854999999998
529,1,1,2,530,00:22:54,00:00:53,0.0,0.0,0.0,0.0125,0.675,0.8125,55.466687,24.994854999999998
530,1,1,2,531,00:22:54,00:00:53,0.0,0.0,0.0011035533905932717,0.015,0.6775,0.81125,55.46668717,24.99485483
531,1,1,2,532,00:22:54,00:00:53,0.0,0.0,0.0007803300858899128,0.00625,0.67125,0.8125,55.46668733,24.99485483
532,1,1,2,533,00:22:54,00:00:53,0.0,0.0,0.0003749999999999992,0.00375,0.675,0.81375,55.4666875,24.99485467
533,1,1,2,534,00:22:54,00:00:53,0.0,0.0,0.0008017766952966358,0.0,0.6675,0.81625,55.46668767,24.99485467
534,1,1,2,535,00:22:54,00:00:53,0.0,0.0,0.0009785533905932711,0.00125,0.68,0.8125,55.46668767,24.99485467
535,1,1,2,536,00:22:54,00:00:53,0.0,0.0,0.0006250000000000012,0.0,0.67125,0.8125,55.46668783,24.99485467
536,1,1,2,537,00:22:54,00:00:53,0.0,0.0,0.0005000000000000014,0.0,0.66875,0.81375,55.466688,24.99485467
537,1,1,2,538,00:22:54,00:00:53,0.0,0.0,0.0002500000000000002,0.0,0.66375,0.81625,55.466688,24.994854500000002
538,1,1,2,539,00:22:54,00:00:53,0.0,0.0,0.0004999999999999984,0.0,0.66125,0.81375,55.466688,24.994854500000002
539,1,1,2,540,00:22:55,00:00:54,0.0,0.0,0.0008017766952966367,-0.00125,0.66,0.82375,55.466688,24.994854500000002
540,1,1,2,541,00:22:55,00:00:54,0.0,0.0,0.0003749999999999987,0.0,0.6525,0.825,55.46668817,24.994854500000002
541,1,1,2,542,00:22:55,00:00:54,0.0,0.0,0.0002499999999999992,0.0,0.655,0.825,55.46668833,24.994854500000002
542,1,1,2,543,00:22:55,00:00:54,0.0,0.0,0.00012500000000000063,0.0,0.64875,0.825,55.46668833,24.994854500000002
543,1,1,2,544,00:22:55,00:00:54,0.0,0.0,0.0002500000000000002,0.0,0.65875,0.825,55.466688500000004,24.99485433
544,1,1,2,545,00:22:55,00:00:54,0.0,0.0,0.00012499999999999957,0.0,0.6525,0.825,55.466688500000004,24.99485433
545,1,1,2,546,00:22:55,00:00:54,0.0,0.0,0.0003749999999999987,0.0,0.6525,0.825,55.46668867,24.99485433
546,1,1,2,547,00:22:55,00:00:54,0.0,0.0,0.0002499999999999992,0.0,0.66125,0.825,55.46668867,24.99485433
547,1,1,2,548,00:22:55,00:00:54,0.0,0.0,0.0011035533905932738,0.00375,0.66625,0.82375,55.46668883,24.99485417
548,1,1,2,549,00:22:55,00:00:54,0.0,0.0,0.0008017766952966363,0.0225,0.68375,0.8037500000000001,55.46668883,24.99485417
549,1,1,2,550,00:22:56,00:00:55,0.0,0.0,0.0008200597415393832,0.03375,0.67625,0.8075,55.46668883,24.99485417
550,1,1,2,551,00:22:56,00:00:55,0.0,0.0,0.0017834025293215136,0.0325,0.6325,0.8375,55.466689,24.99485417
551,1,1,2,552,00:22:56,00:00:55,0.0,0.0,0.0021454393269798445,0.0,0.7025,0.8275,55.46668917,24.99485417
552,1,1,2,553,00:22:56,00:00:55,0.0,0.0,0.002326158888556785,-0.09875,0.6425,0.78,55.46668933,24.99485417
553,1,1,2,554,00:22:56,00:00:55,0.0,0.0,0.0020241856633422426,-0.17375000000000002,0.6175,0.82125,55.4666895,24.99485417
554,1,1,2,555,00:22:56,00:00:55,0.0,0.0,0.0011615660924854914,-0.18125,0.68375,0.8275,55.4666895,24.99485433
555,1,1,2,556,00:22:56,00:00:55,0.0,0.0,0.0013017766952966355,-0.15,0.685,0.8025,55.46668967,24.99485433
556,1,1,2,557,00:22:56,00:00:55,0.0,0.0,0.002965901207534423,-0.035,0.57,0.87,55.4666895,24.99485433
557,1,1,2,558,00:22:56,00:00:55,0.0,0.0,0.0028836760844326245,-0.0025,0.57875,0.88,55.46668933,24.99485433
558,1,1,2,559,00:22:56,00:00:55,0.0,0.0,0.001381084449740535,-0.01375,0.57625,0.8724999999999999,55.46668933,24.99485433
559,1,1,2,560,00:22:57,00:00:56,0.0,0.0,0.0021922754120736005,-0.0325,0.4975,0.935,55.46668933,24.99485433
560,1,1,2,561,00:22:57,00:00:56,0.0,0.0,0.005049360208749117,-0.0425,0.54375,0.89875,55.46668933,24.994854500000002
561,1,1,2,562,00:22:57,00:00:56,0.0,0.0,0.0026076558051764463,0.04375,0.5475,0.89625,55.46668933,24.994854500000002
562,1,1,2,563,00:22:57,00:00:56,0.0,0.0,0.001981448366007753,0.05375,0.63,0.8525,55.46668933,24.99485433
563,1,1,2,564,00:22:57,00:00:56,0.0,0.0,0.0014053300858899108,0.00375,0.66875,0.81125,55.46668933,24.99485417
564,1,1,2,565,00:22:57,00:00:56,0.0,0.0,0.001554849138728242,0.025,0.66375,0.8150000000000001,55.4666895,24.99485417
565,1,1,2,566,00:22:57,00:00:56,0.0,0.0,0.0019240375028175,0.0925,0.6325000000000001,0.8275,55.4666895,24.994854
566,1,1,2,567,00:22:57,00:00:56,0.0,0.0,0.001371836436836019,0.1525,0.61625,0.8362499999999999,55.4666895,24.994854
567,1,1,2,568,00:22:57,00:00:56,0.0,0.0,0.0015024706047296345,0.18875,0.61375,0.8262499999999999,55.4666895,24.99485383
568,1,1,2,569,00:22:57,00:00:56,0.0,0.0,0.0011767766952966376,0.19875,0.61875,0.835,55.46668967,24.99485383
569,1,1,2,570,00:22:58,00:00:57,0.0,0.0,0.0019021665227259292,0.17625,0.6375,0.81375,55.46668967,24.99485383
570,1,1,2,571,00:22:58,00:00:57,0.0,0.0,0.0014159756150367525,0.17375,0.645,0.81125,55.46668967,24.99485367
571,1,1,2,572,00:22:58,00:00:57,0.0,0.0,0.0019758141981141373,0.13125,0.65375,0.815,55.46668967,24.99485367
572,1,1,2,573,00:22:58,00:00:57,0.0,0.0,0.003109569176703169,0.11375,0.6475,0.8200000000000001,55.46668983,24.99485383
573,1,1,2,574,00:22:58,00:00:57,0.0,0.0,0.0024714829092670238,0.08,0.555,0.86125,55.46668983,24.99485383
574,1,1,2,575,00:22:58,00:00:57,0.0,0.0,0.0028251603960573798,0.09,0.55625,0.885,55.46668983,24.994854
575,1,1,2,576,00:22:58,00:00:57,0.0,0.0,0.003232622732335232,0.1025,0.455,0.95375,55.46668983,24.994854
576,1,1,2,577,00:22:58,00:00:57,0.0,0.0,0.0030049243681527843,0.085,0.42,0.94875,55.46668983,24.99485417
577,1,1,2,578,00:22:58,00:00:57,0.0,0.0,0.002574378144358267,0.04,0.46125,0.95875,55.46668983,24.99485433
578,1,1,2,579,00:22:58,00:00:57,0.0,0.0,0.0016557544565747545,0.02375,0.4325,0.9575,55.46669,24.99485433
579,1,1,2,580,00:22:59,00:00:58,0.0,0.0,0.001268283046242745,0.05375,0.4575,0.93625,55.46669,24.99485433
580,1,1,2,581,00:22:59,00:00:58,0.0,0.0,0.0009450597415393813,0.06375,0.46625,0.9425,55.46669,24.99485433
581,1,1,2,582,00:22:59,00:00:58,0.0,0.0,0.001258883476483183,0.0375,0.48,0.935,55.46669017,24.99485433
582,1,1,2,583,00:22:59,00:00:58,0.0,0.0,0.0007682830462427464,0.0425,0.48875,0.93,55.46669033,24.99485433
583,1,1,2,584,00:22:59,00:00:58,0.0,0.0,0.0014606947150353725,0.04,0.5075,0.92,55.466690500000006,24.99485417
584,1,1,2,585,00:22:59,00:00:58,0.0,0.0,0.001030330085889911,0.0325,0.49625,0.92375,55.466690500000006,24.99485417
585,1,1,2,586,00:22:59,00:00:58,0.0,0.0,0.0010821067811865473,0.02625,0.51875,0.9125,55.46669067,24.99485417
586,1,1,2,587,00:22:59,00:00:58,0.0,0.0,0.0007285533905932764,0.025,0.51625,0.91875,55.46669067,24.99485417
587,1,1,2,588,00:22:59,00:00:58,0.0,0.0,0.0013535533905932747,0.0275,0.52875,0.90375,55.46669083,24.99485417
588,1,1,2,589,00:22:59,00:00:58,0.0,0.0,0.0010182830462427447,0.0175,0.53375,0.905,55.46669083,24.994854
589,1,1,2,590,00:23:00,00:00:59,0.0,0.0,0.001103553390593271,0.02125,0.53375,0.90625,55.46669083,24.994854
590,1,1,2,591,00:23:00,00:00:59,0.0,0.0,0.0009053300858899133,0.0125,0.5475,0.89875,55.46669117,24.994854
591,1,1,2,592,00:23:00,00:00:59,0.0,0.0,0.0008535533905932753,0.01375,0.55,0.89375,55.46669117,24.994854
592,1,1,2,593,00:23:00,00:00:59,0.0,0.0,0.0008535533905932745,0.0075000000000000015,0.55,0.895,55.46669133,24.994854
593,1,1,2,594,00:23:00,00:00:59,0.0,0.0,0.0009785533905932754,0.01,0.55,0.89125,55.4666915,24.994854
594,1,1,2,595,00:23:00,00:00:59,0.0,0.0,0.0006249999999999977,0.0,0.5625,0.8875,55.4666915,24.994854
595,1,1,2,596,00:23:00,00:00:59,0.0,0.0,0.0008017766952966349,0.00125,0.5575,0.885,55.46669167,24.994854
596,1,1,2,597,00:23:00,00:00:59,0.0,0.0,0.001103553390593272,0.00375,0.565,0.88625,55.46669167,24.994854
597,1,1,2,598,00:23:00,00:00:59,0.0,0.0,0.0012803300858899144,0.00875,0.54875,0.89375,55.46669167,24.994854
598,1,1,2,599,00:23:00,00:00:59,0.0,0.0,0.0006250000000000014,0.00125,0.55625,0.8887499999999999,55.46669183,24.994854
599,1,1,2,600,00:23:01,00:01:00,0.0,0.0,0.000996836436836022,0.0075000000000000015,0.5575,0.89,55.46669183,24.994854
600,1,1,2,601,00:23:01,00:01:00,0.0,0.0,0.0010700597415393832,0.00875,0.55625,0.8887499999999999,55.46669183,24.994854
601,1,1,2,602,00:23:01,00:01:00,0.0,0.0,0.0008535533905932723,0.0075000000000000015,0.5625,0.8875,55.46669183,24.994854
602,1,1,2,603,00:23:01,00:01:00,0.0,0.0,0.0008535533905932733,0.00375,0.56875,0.88625,55.466692,24.994854
603,1,1,2,604,00:23:01,00:01:00,0.0,0.0,0.0010517766952966349,0.0,0.5725,0.88125,55.46669217,24.994854
604,1,1,2,605,00:23:01,00:01:00,0.0,0.0,0.0008017766952966349,0.00375,0.575,0.88,55.46669217,24.99485417
605,1,1,2,606,00:23:01,00:01:00,0.0,0.0,0.0006553300858899107,0.02,0.575,0.87625,55.46669233,24.99485417
606,1,1,2,607,00:23:01,00:01:00,0.0,0.0,0.0008017766952966344,0.00375,0.57,0.8825,55.46669233,24.99485417
607,1,1,2,608,00:23:01,00:01:00,0.0,0.0,0.0005517766952966365,-0.00375,0.58375,0.8775,55.46669250000001,24.99485417
608,1,1,2,609,00:23:01,00:01:00,0.0,0.0,0.0008312851924841108,-0.0075000000000000015,0.58875,0.8675,55.46669267,24.99485417
609,1,1,2,610,00:23:02,00:01:01,0.0,0.0,0.00120710678118655,-0.025,0.6012500000000001,0.855,55.46669267,24.99485417
610,1,1,2,611,00:23:02,00:01:01,0.0,0.0,0.0019331896994241266,-0.0675,0.64,0.84,55.46669283,24.99485417
611,1,1,2,612,00:23:02,00:01:01,0.0,0.0,0.0017366152783740206,-0.08375,0.64625,0.83125,55.46669300000001,24.99485417
612,1,1,2,613,00:23:02,00:01:01,0.0,0.0,0.0013200597415393828,-0.09125,0.6575,0.81625,55.46669317,24.99485417
613,1,1,2,614,00:23:02,00:01:01,0.0,0.0,0.0011035533905932732,-0.105,0.6675,0.81125,55.46669317,24.99485417
614,1,1,2,615,00:23:02,00:01:01,0.0,0.0,0.001411566092485494,-0.115,0.65125,0.82,55.46669333,24.99485417
615,1,1,2,616,00:23:02,00:01:01,0.0,0.0,0.0011330618877807466,-0.1125,0.6575,0.81875,55.46669333,24.99485417
616,1,1,2,617,00:23:02,00:01:01,0.0,0.0,0.0014308534312109668,-0.105,0.66875,0.8125,55.466693500000005,24.99485433
617,1,1,2,618,00:23:02,00:01:01,0.0,0.0,0.0008535533905932713,-0.1025,0.655,0.8225,55.466693500000005,24.99485433
618,1,1,2,619,00:23:02,00:01:01,0.0,0.0,0.0014968364368360206,-0.1,0.66875,0.81125,55.46669367,24.99485433
619,1,1,2,620,00:23:03,00:01:02,0.0,0.0,0.0012803300858899116,-0.1075,0.645,0.8225,55.46669367,24.99485433
620,1,1,2,621,00:23:03,00:01:02,0.0,0.0,0.0011035533905932708,-0.10625,0.655,0.81875,55.46669367,24.994854500000002
621,1,1,2,622,00:23:03,00:01:02,0.0,0.0,0.0010517766952966377,-0.10875,0.665,0.81625,55.46669383,24.994854500000002
622,1,1,2,623,00:23:03,00:01:02,0.0,0.0,0.0004665063509461098,-0.10375,0.66625,0.80875,55.46669383,24.99485467
623,1,1,2,624,00:23:03,00:01:02,0.0,0.0,0.001195059741539384,-0.10875,0.6625,0.8175,55.46669383,24.99485467
624,1,1,2,625,00:23:03,00:01:02,0.0,0.0,0.0006767766952966365,-0.1075,0.65875,0.81125,55.466694,24.99485467
625,1,1,2,626,00:23:03,00:01:02,0.0,0.0,0.0012499999999999992,-0.10875,0.66,0.815,55.466694,24.99485467
626,1,1,2,627,00:23:03,00:01:02,0.0,0.0,0.0008017766952966356,-0.1075,0.65375,0.8125,55.466694,24.99485483
627,1,1,2,628,00:23:03,00:01:02,0.0,0.0,0.0010182830462427443,-0.105,0.6575,0.81875,55.466694,24.99485483
628,1,1,2,629,00:23:03,00:01:02,0.0,0.0,0.0005182830462427454,-0.0975,0.6525,0.82375,55.466694,24.99485483
629,1,1,2,630,00:23:04,00:01:03,0.0,0.0,0.0008017766952966356,-0.1025,0.65625,0.8225,55.466694,24.99485483
630,1,1,2,631,00:23:04,00:01:03,0.0,0.0,0.0007285533905932714,-0.10125,0.65875,0.81875,55.46669417,24.994854999999998
631,1,1,2,632,00:23:04,00:01:03,0.0,0.0,0.0008535533905932737,-0.105,0.66,0.82,55.46669417,24.994854999999998
632,1,1,2,633,00:23:04,00:01:03,0.0,0.0,0.0008535533905932714,-0.1025,0.655,0.8175,55.46669417,24.994854999999998
633,1,1,2,634,00:23:04,00:01:03,0.0,0.0,0.0009571067811865444,-0.1,0.65375,0.8175,55.46669433,24.994854999999998
634,1,1,2,635,00:23:04,00:01:03,0.0,0.0,0.0011035533905932712,-0.10375,0.66125,0.815,55.46669433,24.994854999999998
635,1,1,2,636,00:23:04,00:01:03,0.0,0.0,0.0007499999999999985,-0.09875,0.65875,0.81375,55.46669433,24.99485517
636,1,1,2,637,00:23:04,00:01:03,0.0,0.0,0.0004785533905932756,-0.0975,0.67,0.8125,55.466694499999996,24.99485517
637,1,1,2,638,00:23:04,00:01:03,0.0,0.0,0.0008017766952966366,-0.09625,0.65625,0.81375,55.466694499999996,24.99485517
638,1,1,2,639,00:23:04,00:01:03,0.0,0.0,0.0008535533905932745,-0.095,0.66375,0.81375,55.466694499999996,24.99485517
639,1,1,2,640,00:23:05,00:01:04,0.0,0.0,0.0009053300858899109,-0.0925,0.66125,0.8125,55.466694499999996,24.99485517
640,1,1,2,641,00:23:05,00:01:04,0.0,0.0,0.0010303300858899088,-0.09125,0.6625,0.81375,55.46669467,24.99485517
641,1,1,2,642,00:23:05,00:01:04,0.0,0.0,0.0008017766952966363,-0.0875,0.6637500000000001,0.815,55.466694499999996,24.99485517
642,1,1,2,643,00:23:05,00:01:04,0.0,0.0,0.0007285533905932741,-0.08875,0.665,0.81375,55.46669467,24.99485517
643,1,1,2,644,00:23:05,00:01:04,0.0,0.0,0.000603553390593274,-0.08499999999999999,0.6675,0.81125,55.46669467,24.99485517
644,1,1,2,645,00:23:05,00:01:04,0.0,0.0,0.000603553390593274,-0.09125,0.66375,0.81375,55.46669467,24.99485517
645,1,1,2,646,00:23:05,00:01:04,0.0,0.0,0.001133883476483185,-0.08875,0.6725,0.80625,55.46669467,24.99485517
646,1,1,2,647,00:23:05,00:01:04,0.0,0.0,0.0005915063509461104,-0.06375,0.66625,0.81125,55.46669467,24.99485517
647,1,1,2,648,00:23:05,00:01:04,0.0,0.0,0.0010517766952966368,-0.10125,0.67,0.8125,55.46669467,24.99485517
648,1,1,2,649,00:23:05,00:01:04,0.0,0.0,0.0009045084971874742,-0.07250000000000001,0.67125,0.80625,55.46669467,24.99485517
649,1,1,2,650,00:23:06,00:01:05,0.0,0.0,0.0011218364368360183,-0.03625,0.68375,0.8037500000000001,55.46669467,24.99485517
650,1,1,2,651,00:23:06,00:01:05,0.0,0.0,0.0006553300858899116,-0.05125,0.70125,0.79125,55.46669483,24.994854999999998
651,1,1,2,652,00:23:06,00:01:05,0.0,0.0,0.0014115660924854914,-0.03625,0.69125,0.78625,55.46669483,24.994854999999998
652,1,1,2,653,00:23:06,00:01:05,0.0,0.0,0.001036566092485495,0.00375,0.69875,0.79125,55.46669483,24.994854999999998
653,1,1,2,654,00:23:06,00:01:05,0.0,0.0,0.0014053300858899108,0.00375,0.7125,0.77875,55.46669483,24.99485483
654,1,1,2,655,00:23:06,00:01:05,0.0,0.0,0.0014356601717798222,-0.0175,0.72875,0.775,55.46669483,24.99485467
655,1,1,2,656,00:23:06,00:01:05,0.0,0.0,0.0016444838686433792,0.06125,0.7075,0.76875,55.46669483,24.99485467
656,1,1,2,657,00:23:06,00:01:05,0.0,0.0,0.0007062851924841112,0.08124999999999999,0.73375,0.7625,55.46669483,24.994854500000002
657,1,1,2,658,00:23:06,00:01:05,0.0,0.0,0.0007803300858899097,0.03,0.73875,0.7575,55.46669483,24.994854500000002
658,1,1,2,659,00:23:06,00:01:05,0.0,0.0,0.0010347396084411694,0.018750000000000003,0.73375,0.765,55.46669483,24.994854500000002
659,1,1,2,660,00:23:07,00:01:06,0.0,0.0,0.0012071067811865465,0.03375,0.7225,0.76625,55.46669483,24.994854500000002
660,1,1,2,661,00:23:07,00:01:06,0.0,0.0,0.0011767766952966387,0.00875,0.71875,0.76875,55.46669483,24.99485433
661,1,1,2,662,00:23:07,00:01:06,0.0,0.0,0.0008017766952966379,0.0,0.7162499999999999,0.78125,55.46669483,24.994854500000002
662,1,1,2,663,00:23:07,00:01:06,0.0,0.0,0.0004999999999999991,0.01125,0.7,0.78375,55.46669483,24.99485433
663,1,1,2,664,00:23:07,00:01:06,0.0,0.0,0.0013200597415393832,0.035,0.71,0.78125,55.46669467,24.99485433
664,1,1,2,665,00:23:07,00:01:06,0.0,0.0,0.0008017766952966358,0.04875,0.7012499999999999,0.78375,55.46669467,24.99485433
665,1,1,2,666,00:23:07,00:01:06,0.0,0.0,0.0008017766952966358,0.05375,0.6975,0.7875,55.46669467,24.99485433
666,1,1,2,667,00:23:07,00:01:06,0.0,0.0,0.0007500000000000003,0.06125,0.7,0.7875,55.466694499999996,24.99485433
667,1,1,2,668,00:23:07,00:01:06,0.0,0.0,0.00025000000000000066,0.06375,0.7025,0.7875,55.466694499999996,24.99485433
668,1,1,2,669,00:23:07,00:01:06,0.0,0.0,0.001246836436836022,0.055,0.6975,0.78875,55.466694499999996,24.99485417
669,1,1,2,670,00:23:08,00:01:07,0.0,0.0,0.0013838834764831815,0.05125,0.69375,0.78625,55.466694499999996,24.99485417
670,1,1,2,671,00:23:08,00:01:07,0.0,0.0,0.0008017766952966379,0.05125,0.69875,0.79125,55.466694499999996,24.99485417
671,1,1,2,672,00:23:08,00:01:07,0.0,0.0,0.000801776695296638,0.052500000000000005,0.69875,0.79,55.46669433,24.994854
672,1,1,2,673,00:23:08,00:01:07,0.0,0.0,0.0007500000000000003,0.05125,0.7012499999999999,0.7875,55.46669433,24.994854
673,1,1,2,674,00:23:08,00:01:07,0.0,0.0,0.0007285533905932741,0.05375,0.695,0.78875,55.46669433,24.994854
674,1,1,2,675,00:23:08,00:01:07,0.0,0.0,0.0002500000000000013,0.0625,0.7025,0.7875,55.46669433,24.994854
675,1,1,2,676,00:23:08,00:01:07,0.0,0.0,0.0006250000000000013,0.06,0.7012499999999999,0.7875,55.46669433,24.99485383
676,1,1,2,677,00:23:08,00:01:07,0.0,0.0,0.0004999999999999999,0.055,0.7,0.7875,55.46669433,24.99485383
677,1,1,2,678,00:23:08,00:01:07,0.0,0.0,0.0009562851924841103,0.055,0.69875,0.78625,55.46669433,24.99485383
678,1,1,2,679,00:23:08,00:01:07,0.0,0.0,0.0010821067811865467,0.05375,0.69875,0.7875,55.46669417,24.99485367
679,1,1,2,680,00:23:09,00:01:08,0.0,0.0,0.000625000000000001,0.04875,0.7,0.7875,55.46669417,24.99485367
680,1,1,2,681,00:23:09,00:01:08,0.0,0.0,0.0003750000000000009,0.05,0.7,0.7875,55.46669433,24.99485367
681,1,1,2,682,00:23:09,00:01:08,0.0,0.0,0.0010821067811865484,0.05375,0.70625,0.78125,55.46669433,24.9948535
682,1,1,2,683,00:23:09,00:01:08,0.0,0.0,0.0009785533905932733,0.05,0.70375,0.785,55.46669417,24.9948535
683,1,1,2,684,00:23:09,00:01:08,0.0,0.0,0.000905330085889909,0.05,0.71625,0.7775,55.46669417,24.9948535
684,1,1,2,685,00:23:09,00:01:08,0.0,0.0,0.0010517766952966368,0.04875,0.7012499999999999,0.7825,55.46669417,24.9948535
685,1,1,2,686,00:23:09,00:01:08,0.0,0.0,0.0006767766952966366,0.04375,0.7025,0.7875,55.46669417,24.9948535
686,1,1,2,687,00:23:09,00:01:08,0.0,0.0,0.002264967926223719,0.08125,0.7475,0.7525,55.46669417,24.9948535
687,1,1,2,688,00:23:09,00:01:08,0.0,0.0,0.0017928014962219196,0.07875,0.81,0.68875,55.46669417,24.99485333
688,1,1,2,689,00:23:09,00:01:08,0.0,0.0,0.0028853317657716944,0.02375,0.66625,0.72875,55.466694,24.9948535
689,1,1,2,690,00:23:10,00:01:09,0.0,0.0,0.003723085442491675,-0.0025,0.48,0.8724999999999999,55.466694,24.9948535
690,1,1,2,691,00:23:10,00:01:09,0.54444488,2.3055574,0.003173631435196782,0.00875,0.19375,0.9825,55.466693500000005,24.99485417
691,1,1,2,692,00:23:10,00:01:09,0.60555604,0.6111116,0.0032668209600761364,-0.00875,0.1325,1.1125,55.46669300000001,24.994854500000002
692,1,1,2,693,00:23:10,00:01:09,0.44444480000000003,1.6111124,0.0021287364227310893,0.03625,0.08375,1.1775,55.46669267,24.99485483
693,1,1,2,694,00:23:10,00:01:09,0.35555584,0.8888896000000001,0.0018484063368411781,0.05375,0.08375,1.075,55.46669233,24.994854999999998
694,1,1,2,695,00:23:10,00:01:09,0.0,3.5555584000000002,0.001036566092485492,0.06999999999999999,0.16625,1.065,55.46669217,24.994854999999998
695,1,1,2,696,00:23:10,00:01:09,0.0,0.0,0.0009562851924841113,0.07625,0.2025,1.03125,55.46669217,24.994854999999998
696,1,1,2,697,00:23:10,00:01:09,0.0,0.0,0.0007499999999999996,0.05875,0.24,1.02,55.466692,24.994854999999998
697,1,1,2,698,00:23:10,00:01:09,0.0,0.0,0.0008017766952966363,0.06375,0.24125,1.01125,55.466692,24.99485483
698,1,1,2,699,00:23:10,00:01:09,0.0,0.0,0.0008017766952966357,0.065,0.24375,1.0225,55.46669183,24.99485483
699,1,1,2,700,00:23:11,00:01:10,0.0,0.0,0.0009267766952966352,0.06999999999999999,0.2375,1.02125,55.46669183,24.99485483
700,1,1,2,701,00:23:11,00:01:10,0.0,0.0,0.0006553300858899097,0.06125,0.23625,1.02375,55.46669167,24.99485483
701,1,1,2,702,00:23:11,00:01:10,0.0,0.0,0.0010580127018922187,0.052500000000000005,0.2425,1.02125,55.46669167,24.99485483
702,1,1,2,703,00:23:11,00:01:10,0.0,0.0,0.0013882929990344435,0.05375,0.255,1.0174999999999998,55.46669167,24.99485483
703,1,1,2,704,00:23:11,00:01:10,0.0,0.0,0.0007795084971874739,0.05625,0.25625,1.0187499999999998,55.46669167,24.99485467
704,1,1,2,705,00:23:11,00:01:10,0.0,0.0,0.001103553390593271,0.052500000000000005,0.26375000000000004,1.015,55.46669167,24.99485467
705,1,1,2,706,00:23:11,00:01:10,0.0,0.0,0.0013321067811865447,0.05625,0.27,1.00625,55.46669167,24.99485467
706,1,1,2,707,00:23:11,00:01:10,0.0,0.0,0.00042677669529663534,0.0625,0.2775,1.00375,55.46669167,24.99485467
707,1,1,2,708,00:23:11,00:01:10,0.0,0.0,0.0009267766952966344,0.06,0.2825,1.00875,55.46669167,24.994854500000002
708,1,1,2,709,00:23:11,00:01:10,0.0,0.0,0.0007803300858899081,0.06125,0.28125,1.01,55.4666915,24.994854500000002
709,1,1,2,710,00:23:12,00:01:11,0.0,0.0,0.0011338834764831815,0.05625,0.27875,1.005,55.4666915,24.994854500000002
710,1,1,2,711,00:23:12,00:01:11,0.0,0.0,0.0008017766952966353,0.06125,0.2775,1.01,55.4666915,24.994854500000002
711,1,1,2,712,00:23:12,00:01:11,0.0,0.0,0.000551776695296635,0.0625,0.27875,1.00875,55.46669167,24.994854500000002
712,1,1,2,713,00:23:12,00:01:11,0.0,0.0,0.0007285533905932719,0.05875,0.2825,1.01,55.46669167,24.994854500000002
713,1,1,2,714,00:23:12,00:01:11,0.0,0.0,0.0008932830462427444,0.052500000000000005,0.2775,1.01375,55.46669167,24.994854500000002
714,1,1,2,715,00:23:12,00:01:11,0.0,0.0,0.0005517766952966367,0.05125,0.2725,1.01,55.46669183,24.994854500000002
715,1,1,2,716,00:23:12,00:01:11,0.0,0.0,0.0004999999999999984,0.05,0.28,1.01,55.46669183,24.994854500000002
716,1,1,2,717,00:23:12,00:01:11,0.0,0.0,0.0008535533905932735,0.0625,0.28874999999999995,1.0025,55.46669183,24.994854500000002
717,1,1,2,718,00:23:12,00:01:11,0.0,0.0,0.0008932830462427446,0.05875,0.29,1.0075,55.46669183,24.994854500000002
718,1,1,2,719,00:23:12,00:01:11,0.0,0.0,0.0010700597415393817,0.06,0.28875,1.00375,55.46669183,24.99485433
719,1,1,2,720,00:23:13,00:01:12,0.0,0.0,0.0009267766952966364,0.0625,0.2975,1.00375,55.46669183,24.99485433
720,1,1,2,721,00:23:13,00:01:12,0.0,0.0,0.0009267766952966348,0.05875,0.29,1.0075,55.46669183,24.99485433
721,1,1,2,722,00:23:13,00:01:12,0.0,0.0,0.0009053300858899092,0.06,0.28874999999999995,1.00375,55.46669183,24.99485433
722,1,1,2,723,00:23:13,00:01:12,0.0,0.0,0.0010700597415393817,0.06,0.28625,1.00875,55.46669183,24.99485433
723,1,1,2,724,00:23:13,00:01:12,0.0,0.0,0.0008017766952966357,0.06125,0.2875,1.0025,55.46669183,24.99485433
724,1,1,2,725,00:23:13,00:01:12,0.0,0.0,0.0008017766952966349,0.06125,0.28625,1.01,55.46669183,24.994854500000002
725,1,1,2,726,00:23:13,00:01:12,0.0,0.0,0.0008017766952966363,0.052500000000000005,0.2725,1.0125,55.46669183,24.994854500000002
726,1,1,2,727,00:23:13,00:01:12,0.0,0.0,0.0004999999999999994,0.05,0.27375000000000005,1.01375,55.46669183,24.994854500000002
727,1,1,2,728,00:23:13,00:01:12,0.0,0.0,0.0012986131321326554,0.05,0.26625,1.01375,55.46669183,24.994854500000002
728,1,1,2,729,00:23:13,00:01:12,0.0,0.0,0.0011218364368360196,0.045,0.2575,1.01625,55.46669183,24.99485467
729,1,1,2,730,00:23:14,00:01:13,0.0,0.0,0.0005517766952966364,0.05,0.26375000000000004,1.01375,55.46669183,24.99485467
730,1,1,2,731,00:23:14,00:01:13,0.0,0.0,0.0005000000000000004,0.05,0.2625,1.0125,55.46669183,24.99485483
731,1,1,2,732,00:23:14,00:01:13,0.0,0.0,0.0004999999999999994,0.05,0.26,1.01375,55.46669183,24.99485483
732,1,1,2,733,00:23:14,00:01:13,0.0,0.0,0.0008017766952966367,0.045,0.2675,1.015,55.46669183,24.99485483
733,1,1,2,734,00:23:14,00:01:13,0.0,0.0,0.0008415063509461084,0.05,0.26125,1.01625,55.46669167,24.99485483
734,1,1,2,735,00:23:14,00:01:13,0.0,0.0,0.000676776695296636,0.05,0.2675,1.01125,55.46669167,24.994854999999998
735,1,1,2,736,00:23:14,00:01:13,0.0,0.0,0.0005517766952966371,0.0475,0.27125,1.0125,55.46669167,24.994854999999998
736,1,1,2,737,00:23:14,00:01:13,0.0,0.0,0.0007285533905932737,0.04875,0.26875000000000004,1.01375,55.46669167,24.994854999999998
737,1,1,2,738,00:23:14,00:01:13,0.0,0.0,0.0008017766952966358,0.04875,0.26625,1.01125,55.46669167,24.994854999999998
738,1,1,2,739,00:23:14,00:01:13,0.0,0.0,0.0009267766952966355,0.05,0.26625,1.015,55.46669167,24.994854999999998
739,1,1,2,740,00:23:15,00:01:14,0.0,0.0,0.0004999999999999991,0.04875,0.2625,1.01375,55.46669167,24.994854999999998
740,1,1,2,741,00:23:15,00:01:14,0.0,0.0,0.0011249999999999997,0.04625,0.27,1.01125,55.4666915,24.99485517
741,1,1,2,742,00:23:15,00:01:14,0.0,0.0,0.0009267766952966374,0.0475,0.2725,1.0125,55.4666915,24.99485517
742,1,1,2,743,00:23:15,00:01:14,0.0,0.0,0.0006767766952966371,0.04625,0.27125,1.0125,55.4666915,24.99485517
743,1,1,2,744,00:23:15,00:01:14,0.0,0.0,0.0004665063509461097,0.04875,0.2725,1.01375,55.4666915,24.99485533
744,1,1,2,745,00:23:15,00:01:14,0.0,0.0,0.0007285533905932737,0.045,0.2675,1.0174999999999998,55.4666915,24.99485533
745,1,1,2,746,00:23:15,00:01:14,0.0,0.0,0.00115533008588991,0.04625,0.2725,1.00875,55.4666915,24.99485533
746,1,1,2,747,00:23:15,00:01:14,0.0,0.0,0.0005517766952966356,0.045,0.27875,1.0125,55.46669133,24.99485533
747,1,1,2,748,00:23:15,00:01:14,0.0,0.0,0.0007499999999999996,0.05,0.27125,1.01375,55.46669133,24.9948555
748,1,1,2,749,00:23:15,00:01:14,0.0,0.0,0.0004267766952966363,0.05,0.27375000000000005,1.01125,55.46669133,24.9948555
749,1,1,2,750,00:23:16,00:01:15,0.0,0.0,0.0008017766952966353,0.05375,0.27,1.01,55.46669133,24.9948555
750,1,1,2,751,00:23:16,00:01:15,0.0,0.0,0.00042677669529663686,0.05,0.27375000000000005,1.01,55.46669117,24.99485567
751,1,1,2,752,00:23:16,00:01:15,0.0,0.0,0.0005517766952966356,0.05125,0.2775,1.0125,55.46669117,24.99485567
752,1,1,2,753,00:23:16,00:01:15,0.0,0.0,0.0003749999999999987,0.05,0.27875,1.0075,55.466691000000004,24.99485567
753,1,1,2,754,00:23:16,00:01:15,0.0,0.0,0.0003749999999999987,0.05,0.28,1.0125,55.466691000000004,24.99485583
754,1,1,2,755,00:23:16,00:01:15,0.0,0.0,0.0006767766952966353,0.052500000000000005,0.28375,1.00875,55.466691000000004,24.99485583
755,1,1,2,756,00:23:16,00:01:15,0.0,0.0,0.0009571067811865473,0.04875,0.26375000000000004,1.0174999999999998,55.466691000000004,24.994856
756,1,1,2,757,00:23:16,00:01:15,0.0,0.0,0.0008321067811865486,0.05875,0.235,1.04125,55.46669083,24.994856
757,1,1,2,758,00:23:16,00:01:15,0.0,0.0,0.0013932830462427455,0.06999999999999999,0.23375,1.0425,55.46669083,24.99485617
758,1,1,2,759,00:23:16,00:01:15,0.0,0.0,0.0011432830462427465,0.065,0.23625,1.075,55.46669083,24.99485617
759,1,1,2,760,00:23:17,00:01:16,0.0,0.0,0.002195326502821278,0.045,0.25125,1.05125,55.46669083,24.99485617
760,1,1,2,761,00:23:17,00:01:16,0.0,0.0,0.001600389827429293,-0.0225,0.3175,1.00625,55.46669083,24.99485617
761,1,1,2,762,00:23:17,00:01:16,0.0,0.0,0.002691718710358281,-0.05125,0.38375,0.94125,55.466691000000004,24.994856
762,1,1,2,763,00:23:17,00:01:16,0.3055558,3.055558,0.0023628612377613,-0.05125,0.485,0.8875,55.46669117,24.99485583
763,1,1,2,764,00:23:17,00:01:16,0.33611138,0.3055558,0.00226082252667875,-0.0225,0.55375,0.8475,55.46669133,24.9948555
764,1,1,2,765,00:23:17,00:01:16,0.0,3.3611138,0.002466350637548677,-0.045,0.6775,0.7675,55.4666915,24.99485533
765,1,1,2,766,00:23:17,00:01:16,0.36388918,3.6388917999999997,0.0020303531137408717,-0.10625,0.7925,0.69875,55.46669167,24.99485517
766,1,1,2,767,00:23:17,00:01:16,0.36944474,0.055555600000000004,0.0019695781915185567,-0.1425,0.88375,0.69375,55.466692,24.994854999999998
767,1,1,2,768,00:23:17,00:01:16,0.33611138,0.33333359999999995,0.003430318400616678,-0.27625,0.83,0.68875,55.46669217,24.99485483
768,1,1,2,769,00:23:17,00:01:16,0.0,3.3611138,0.002800431227512961,-0.2925,0.685,0.67875,55.46669233,24.99485483
769,1,1,2,770,00:23:18,00:01:17,0.0,3.3611138,0.004225699117398296,-0.1275,0.66125,0.74375,55.46669233,24.99485483
770,1,1,2,771,00:23:18,00:01:17,0.40555588,4.0555588,0.0053125681620343045,0.29875,0.85875,0.8049999999999999,55.466692,24.99485433
771,1,1,2,772,00:23:18,00:01:17,0.53055598,1.250001,0.0029037740285903888,0.395,0.86,0.66625,55.46669183,24.99485383
772,1,1,2,773,00:23:18,00:01:17,0.0,5.3055598,0.0026503671913488593,0.38,0.6675,0.66625,55.46669183,24.99485367
773,1,1,2,774,00:23:18,00:01:17,0.0,0.0,0.003563315336016867,0.23,0.615,0.8225,55.46669167,24.99485367
774,1,1,2,775,00:23:18,00:01:17,0.0,0.0,0.002719225946563819,0.04875,0.55875,0.91,55.46669167,24.99485383
775,1,1,2,776,00:23:18,00:01:17,0.36388918,3.6388917999999997,0.0029405568084726014,-0.04375,0.61375,0.87375,55.46669183,24.99485417
776,1,1,2,777,00:23:18,00:01:17,0.0,3.6388917999999997,0.0017771665227259313,-0.15,0.48625,0.91125,55.46669183,24.994854500000002
777,1,1,2,778,00:23:18,00:01:17,0.37500029999999995,3.750003,0.0013617910584671573,-0.08875,0.4475,0.9175,55.46669183,24.99485483
778,1,1,2,779,00:23:18,00:01:17,0.0,3.750003,0.0011035533905932727,-0.09875,0.4625,0.94,55.46669183,24.994854999999998
779,1,1,2,780,00:23:19,00:01:18,0.0,3.750003,0.001663391973670656,-0.03375,0.48625,0.93,55.46669183,24.994854999999998
780,1,1,2,781,00:23:19,00:01:18,0.0,0.0,0.001577300040617694,0.022500000000000003,0.47875,0.95375,55.4666915,24.99485517
781,1,1,2,782,00:23:19,00:01:18,0.0,0.0,0.0012977915434302196,0.0625,0.485,0.935,55.46669133,24.994854999999998
782,1,1,2,783,00:23:19,00:01:18,0.0,0.0,0.001445059741539383,0.09875,0.43625,0.96125,55.46669133,24.994854999999998
783,1,1,2,784,00:23:19,00:01:18,0.0,0.0,0.001752920886576554,0.08249999999999999,0.4175,0.94875,55.46669133,24.994854999999998
784,1,1,2,785,00:23:19,00:01:18,0.0,0.0,0.0011444838686433807,0.115,0.5,0.90625,55.46669117,24.994854999999998
785,1,1,2,786,00:23:19,00:01:18,0.0,0.0,0.0013321067811865467,0.18875,0.535,0.87625,55.46669117,24.99485483
786,1,1,2,787,00:23:19,00:01:18,0.0,0.0,0.001280330085889911,0.2225,0.55375,0.84125,55.46669117,24.99485467
787,1,1,2,788,00:23:19,00:01:18,0.31388914,3.1388914,0.0017245682387268568,0.23625,0.6637500000000001,0.78625,55.46669133,24.99485433
788,1,1,2,789,00:23:19,00:01:18,0.30277802,0.11111120000000001,0.0023452799731503464,0.20625,0.765,0.7275,55.4666915,24.994854
789,1,1,2,790,00:23:20,00:01:19,0.30277802,0.11111120000000001,0.0013321067811865467,0.16875,0.785,0.68375,55.4666915,24.994854
790,1,1,2,791,00:23:20,00:01:19,0.0,0.0,0.001400523345321055,0.085,0.8075,0.69375,55.46669167,24.99485383
791,1,1,2,792,00:23:20,00:01:19,0.0,0.0,0.0006767766952966354,0.045,0.81875,0.68875,55.46669183,24.99485383
792,1,1,2,793,00:23:20,00:01:19,0.0,0.0,0.001268283046242746,0.0275,0.81625,0.69625,55.466692,24.99485383
793,1,1,2,794,00:23:20,00:01:19,0.0,0.0,0.0006553300858899126,0.0075000000000000015,0.795,0.71125,55.466692,24.99485367
794,1,1,2,795,00:23:20,00:01:19,0.0,0.0,0.0012285533905932735,0.0675,0.76875,0.7225,55.466692,24.99485367
795,1,1,2,796,00:23:20,00:01:19,0.0,0.0,0.0008200597415393854,0.105,0.74125,0.7362500000000001,55.466692,24.99485367
796,1,1,2,797,00:23:20,00:01:19,0.0,0.0,0.001373838098114322,0.11875,0.73125,0.76,55.466692,24.99485367
797,1,1,2,798,00:23:20,00:01:19,0.0,0.0,0.0015151194830787696,0.115,0.7,0.76625,55.466692,24.99485367
798,1,1,2,799,00:23:20,00:01:19,0.0,0.0,0.0013800741047099033,0.04875,0.71,0.755,55.46669217,24.99485367
799,1,1,2,800,00:23:21,00:01:20,0.0,0.0,0.001367851284969604,-0.02625,0.74125,0.75875,55.46669217,24.99485367
800,1,1,2,801,00:23:21,00:01:20,0.0,0.0,0.0008749999999999983,-0.00625,0.71625,0.74,55.46669250000001,24.99485367
801,1,1,2,802,00:23:21,00:01:20,0.0,0.0,0.0013030226546839176,-0.02125,0.76125,0.7375,55.46669267,24.99485367
802,1,1,2,803,00:23:21,00:01:20,0.0,0.0,0.0017990375028175013,-0.0775,0.83,0.69125,55.46669267,24.99485367
803,1,1,2,804,00:23:21,00:01:20,0.0,0.0,0.0009348385830773851,-0.0575,0.82875,0.6475,55.46669283,24.99485367
804,1,1,2,805,00:23:21,00:01:20,0.0,0.0,0.0010477915434302211,-0.0025,0.82875,0.66375,55.46669283,24.9948535
805,1,1,2,806,00:23:21,00:01:20,0.0,0.0,0.001383883476483181,-0.018750000000000003,0.87375,0.64125,55.46669283,24.9948535
806,1,1,2,807,00:23:21,00:01:20,0.0,0.0,0.0011615660924854908,-0.0025000000000000005,0.8725,0.6225,55.46669283,24.99485333
807,1,1,2,808,00:23:21,00:01:20,0.0,0.0,0.0015088834764831855,0.09125,0.845,0.645,55.46669300000001,24.99485333
808,1,1,2,809,00:23:21,00:01:20,0.0,0.0,0.000931186217847898,0.07625,0.8625,0.64375,55.46669283,24.99485317
809,1,1,2,810,00:23:22,00:01:21,0.0,0.0,0.0009785533905932726,0.03625,0.84625,0.635,55.46669283,24.99485317
810,1,1,2,811,00:23:22,00:01:21,0.0,0.0,0.0008535533905932751,0.01,0.83125,0.65625,55.46669283,24.99485317
811,1,1,2,812,00:23:22,00:01:21,0.0,0.0,0.0009785533905932733,0.05125,0.81875,0.67,55.46669283,24.99485317
812,1,1,2,813,00:23:22,00:01:21,0.0,0.0,0.001371836436836019,0.06,0.8425,0.65875,55.46669283,24.99485333
813,1,1,2,814,00:23:22,00:01:21,0.0,0.0,0.0008017766952966358,0.052500000000000005,0.83375,0.65,55.46669283,24.99485333
814,1,1,2,815,00:23:22,00:01:21,0.0,0.0,0.0010303300858899088,0.04,0.81625,0.67,55.46669283,24.99485333
815,1,1,2,816,00:23:22,00:01:21,0.0,0.0,0.0006767766952966392,0.05,0.83,0.68,55.46669283,24.99485333
816,1,1,2,817,00:23:22,00:01:21,0.0,0.0,0.00037500000000000017,0.04875,0.8262499999999999,0.6625,55.46669267,24.99485333
817,1,1,2,818,00:23:22,00:01:21,0.0,0.0,0.0009968364368360182,0.045,0.815,0.67625,55.46669267,24.99485333
818,1,1,2,819,00:23:22,00:01:21,0.0,0.0,0.0008017766952966357,0.04375,0.81375,0.6775,55.46669267,24.99485333
819,1,1,2,820,00:23:23,00:01:22,0.0,0.0,0.0007499999999999983,0.03875,0.8175,0.67625,55.46669267,24.99485333
820,1,1,2,821,00:23:23,00:01:22,0.0,0.0,0.00107005974153938,0.04875,0.8075,0.6825,55.46669267,24.9948535
821,1,1,2,822,00:23:23,00:01:22,0.0,0.0,0.0006767766952966344,0.05,0.80875,0.685,55.46669267,24.9948535
822,1,1,2,823,00:23:23,00:01:22,0.0,0.0,0.0008415063509461068,0.05375,0.805,0.68875,55.46669267,24.9948535
823,1,1,2,824,00:23:23,00:01:22,0.0,0.0,0.00078033008588991,0.05875,0.82125,0.68625,55.46669250000001,24.9948535
824,1,1,2,825,00:23:23,00:01:22,0.0,0.0,0.0009785533905932726,0.05375,0.82,0.69125,55.46669250000001,24.9948535
825,1,1,2,826,00:23:23,00:01:22,0.0,0.0,0.0012071067811865465,0.0475,0.83125,0.69,55.46669267,24.9948535
826,1,1,2,827,00:23:23,00:01:22,0.0,0.0,0.0013160745896729662,0.05375,0.79625,0.67625,55.46669250000001,24.99485367
827,1,1,2,828,00:23:23,00:01:22,0.0,0.0,0.0012165063509461114,0.08124999999999999,0.78125,0.7275,55.46669233,24.99485367
828,1,1,2,829,00:23:23,00:01:22,0.0,0.0,0.003200408826539777,0.1375,0.835,0.72625,55.46669233,24.99485383
829,1,1,2,830,00:23:24,00:01:23,0.0,0.0,0.003865061002597292,0.045,0.7175,0.7,55.46669233,24.99485383
830,1,1,2,831,00:23:24,00:01:23,0.30000024,3.0000023999999996,0.002972862913490816,-0.065,0.57875,0.765,55.46669217,24.99485433
831,1,1,2,832,00:23:24,00:01:23,0.43333368,1.3333343999999998,0.004948159579731093,-0.04875,0.55375,0.86875,55.46669217,24.99485467
832,1,1,2,833,00:23:24,00:01:23,0.54722266,1.1388898,0.0057714394862775345,-0.205,0.25875,0.9625,55.466692,24.99485517
833,1,1,2,834,00:23:24,00:01:23,0.63055606,0.833334,0.0047048497513441255,-0.255,0.10125,1.04,55.46669167,24.99485567
834,1,1,2,835,00:23:24,00:01:23,0.64444496,0.138889,0.003147271369055073,-0.08875,-0.0025,1.05,55.4666915,24.99485633
835,1,1,2,836,00:23:24,00:01:23,0.42222256,2.222224,0.002481853510868025,-0.20625,-0.015,1.125,55.46669133,24.99485683
836,1,1,2,837,00:23:24,00:01:23,0.31111136,1.111112,0.0029732154221784354,-0.27125,-0.00375,1.0825,55.46669117,24.99485717
837,1,1,2,838,00:23:24,00:01:23,0.0,3.1111136000000004,0.00216646441710226,-0.22375,0.085,1.02875,55.46669117,24.99485733
838,1,1,2,839,00:23:24,00:01:23,0.0,0.0,0.002008334701610546,-0.155,0.075,1.04875,55.466691000000004,24.99485733
839,1,1,2,840,00:23:25,00:01:24,0.0,0.0,0.0013708632912785349,-0.10125,0.0525,1.07625,55.466691000000004,24.99485733
840,1,1,2,841,00:23:25,00:01:24,0.0,0.0,0.001155330085889908,-0.09625,0.05125,1.055,55.466690500000006,24.994857500000002
841,1,1,2,842,00:23:25,00:01:24,0.0,0.0,0.0018140013353348614,-0.11,0.0725,1.0575,55.466690500000006,24.994857500000002
842,1,1,2,843,00:23:25,00:01:24,0.0,0.0,0.0021204343234765407,-0.02125,0.05,1.0475,55.46669033,24.99485767
843,1,1,2,844,00:23:25,00:01:24,0.0,0.0,0.0016116152783740199,-0.00625,0.05875,1.055,55.46669033,24.99485767
844,1,1,2,845,00:23:25,00:01:24,0.0,0.0,0.001986615278374021,0.0325,0.075,1.05375,55.46669017,24.99485767
845,1,1,2,846,00:23:25,00:01:24,0.0,0.0,0.003327806031471923,0.011249999999999998,0.06875,1.02375,55.46669,24.99485767
846,1,1,2,847,00:23:25,00:01:24,0.0,0.0,0.003261089890819796,-0.1025,0.13125,1.06375,55.46669,24.99485767
847,1,1,2,848,00:23:25,00:01:24,0.0,0.0,0.002018126892270552,-0.06000000000000001,0.08,1.03875,55.46669,24.99485783
848,1,1,2,849,00:23:25,00:01:24,0.0,0.0,0.0014523000406176949,-0.0975,0.10875,1.0475,55.46668983,24.99485783
849,1,1,2,850,00:23:26,00:01:25,0.0,0.0,0.0014033465953017948,-0.06999999999999999,0.09625,1.03875,55.46668983,24.99485783
850,1,1,2,851,00:23:26,00:01:25,0.0,0.0,0.0008535533905932732,-0.06999999999999999,0.07875,1.0450000000000002,55.46668983,24.99485783
851,1,1,2,852,00:23:26,00:01:25,0.0,0.0,0.0010821067811865462,-0.07125,0.07625,1.055,55.46668983,24.99485783
852,1,1,2,853,00:23:26,00:01:25,0.0,0.0,0.0007803300858899103,-0.08,0.07875,1.05,55.46668983,24.99485783
853,1,1,2,854,00:23:26,00:01:25,0.0,0.0,0.0011432830462427455,-0.07125,0.07125,1.0437500000000002,55.46668967,24.994857999999997
854,1,1,2,855,00:23:26,00:01:25,0.0,0.0,0.0006767766952966365,-0.0725,0.06625,1.04875,55.46668967,24.994857999999997
855,1,1,2,856,00:23:26,00:01:25,0.0,0.0,0.0005517766952966365,-0.0725,0.06875,1.05,55.46668967,24.994857999999997
856,1,1,2,857,00:23:26,00:01:25,0.0,0.0,0.0005182830462427459,-0.07625,0.07125,1.05125,55.46668967,24.994857999999997
857,1,1,2,858,00:23:26,00:01:25,0.0,0.0,0.0009785533905932722,-0.08124999999999999,0.08,1.05,55.46668967,24.994857999999997
858,1,1,2,859,00:23:26,00:01:25,0.0,0.0,0.00037499999999999985,-0.075,0.07375,1.05,55.46668967,24.994857999999997
859,1,1,2,860,00:23:27,00:01:26,0.0,0.0,0.0009267766952966352,-0.07625,0.0725,1.0450000000000002,55.46668967,24.994857999999997
860,1,1,2,861,00:23:27,00:01:26,0.0,0.0,0.000551776695296636,-0.07625,0.0725,1.04875,55.4666895,24.994857999999997
861,1,1,2,862,00:23:27,00:01:26,0.0,0.0,0.00037499999999999985,-0.07625,0.0725,1.05,55.4666895,24.99485817
862,1,1,2,863,00:23:27,00:01:26,0.0,0.0,0.00024999999999999995,-0.0775,0.075,1.05,55.4666895,24.99485817
863,1,1,2,864,00:23:27,00:01:26,0.0,0.0,0.0010517766952966368,-0.07875,0.07375,1.05,55.46668933,24.99485817
864,1,1,2,865,00:23:27,00:01:26,0.0,0.0,0.0011035533905932736,-0.08124999999999999,0.08124999999999999,1.05,55.46668933,24.99485817
865,1,1,2,866,00:23:27,00:01:26,0.0,0.0,0.0007285533905932736,-0.0775,0.0775,1.05,55.46668933,24.99485817
866,1,1,2,867,00:23:27,00:01:26,0.0,0.0,0.001018283046242745,-0.08,0.07875,1.0475,55.46668917,24.99485817
867,1,1,2,868,00:23:27,00:01:26,0.0,0.0,0.0006767766952966367,-0.08,0.07625,1.05,55.46668917,24.99485817
868,1,1,2,869,00:23:27,00:01:26,0.0,0.0,0.0004999999999999991,-0.075,0.07625,1.04875,55.46668917,24.99485833
869,1,1,2,870,00:23:28,00:01:27,0.0,0.0,0.0008017766952966358,-0.07875,0.08124999999999999,1.04875,55.46668917,24.99485833
870,1,1,2,871,00:23:28,00:01:27,0.0,0.0,0.00024999999999999995,-0.08625,0.075,1.05,55.46668917,24.99485833
871,1,1,2,872,00:23:28,00:01:27,0.0,0.0,0.0009571067811865476,-0.08625,0.08124999999999999,1.05,55.46668917,24.99485833
872,1,1,2,873,00:23:28,00:01:27,0.0,0.0,0.00012499999999999998,-0.0875,0.08,1.05,55.466689,24.99485833
873,1,1,2,874,00:23:28,00:01:27,0.0,0.0,0.0006035533905932736,-0.0775,0.07875,1.05,55.466689,24.9948585
874,1,1,2,875,00:23:28,00:01:27,0.0,0.0,0.0006249999999999999,-0.08249999999999999,0.07875,1.05,55.466689,24.9948585
875,1,1,2,876,00:23:28,00:01:27,0.0,0.0,0.0006035533905932736,-0.0775,0.08,1.05,55.466689,24.9948585
876,1,1,2,877,00:23:28,00:01:27,0.0,0.0,0.0009785533905932726,-0.07625,0.08374999999999999,1.04875,55.466689,24.9948585
877,1,1,2,878,00:23:28,00:01:27,0.0,0.0,0.00042677669529663637,-0.07625,0.08499999999999999,1.0437500000000002,55.466689,24.99485867
878,1,1,2,879,00:23:28,00:01:27,0.0,0.0,0.0007803300858899094,-0.06999999999999999,0.0875,1.04625,55.466689,24.99485867
879,1,1,2,880,00:23:29,00:01:28,0.0,0.0,0.0009053300858899094,-0.075,0.0725,1.05375,55.466689,24.99485867
880,1,1,2,881,00:23:29,00:01:28,0.0,0.0,0.0007682830462427488,-0.08124999999999999,0.08125,1.04125,55.46668917,24.99485867
881,1,1,2,882,00:23:29,00:01:28,0.0,0.0,0.001121836436836019,-0.0725,0.09375,1.0475,55.466689,24.99485867
882,1,1,2,883,00:23:29,00:01:28,0.0,0.0,0.0006767766952966364,-0.08499999999999999,0.09625,1.05125,55.46668917,24.99485867
883,1,1,2,884,00:23:29,00:01:28,0.0,0.0,0.0008932830462427453,-0.08625,0.0925,1.04,55.46668917,24.99485867
884,1,1,2,885,00:23:29,00:01:28,0.0,0.0,0.001070059741539382,-0.0925,0.08499999999999999,1.04625,55.46668917,24.99485867
885,1,1,2,886,00:23:29,00:01:28,0.0,0.0,0.0009785533905932726,-0.12,0.0775,1.04875,55.46668917,24.99485883
886,1,1,2,887,00:23:29,00:01:28,0.0,0.0,0.001030330085889909,-0.1375,0.07125,1.0575,55.46668933,24.99485883
887,1,1,2,888,00:23:29,00:01:28,0.0,0.0,0.0011432830462427474,-0.09125,0.08625,1.03625,55.46668933,24.99485883
888,1,1,2,889,00:23:29,00:01:28,0.0,0.0,0.0009097396084411713,-0.0325,0.075,1.04375,55.46668917,24.99485883
889,1,1,2,890,00:23:30,00:01:29,0.0,0.0,0.0006767766952966363,-0.018750000000000003,0.0575,1.05125,55.46668917,24.99485883
890,1,1,2,891,00:23:30,00:01:29,0.0,0.0,0.0009267766952966355,-0.015,0.04375,1.0525,55.466689,24.99485883
891,1,1,2,892,00:23:30,00:01:29,0.0,0.0,0.0008749999999999977,-0.02125,0.025,1.06625,55.466689,24.994858999999998
892,1,1,2,893,00:23:30,00:01:29,0.0,0.0,0.0006767766952966353,-0.025,0.035,1.05875,55.46668883,24.994858999999998
893,1,1,2,894,00:23:30,00:01:29,0.0,0.0,0.0007285533905932733,-0.022500000000000003,0.04625,1.0525,55.46668883,24.994858999999998
894,1,1,2,895,00:23:30,00:01:29,0.0,0.0,0.0008535533905932732,-0.02125,0.0475,1.05375,55.46668883,24.994858999999998
895,1,1,2,896,00:23:30,00:01:29,0.0,0.0,0.0009267766952966352,-0.0275,0.05,1.0525,55.46668883,24.99485917
896,1,1,2,897,00:23:30,00:01:29,0.0,0.0,0.0,-0.0375,0.05,1.05,55.46668883,24.99485917
897,1,1,2,898,00:23:30,00:01:29,0.0,0.0,0.000875,-0.04625,0.055,1.05,55.46668883,24.99485933
898,1,1,2,899,00:23:30,00:01:29,0.0,0.0,0.0007285533905932733,-0.052500000000000005,0.0475,1.055,55.46668883,24.99485933
899,1,1,2,900,00:23:31,00:01:30,0.0,0.0,0.000676776695296636,-0.05875,0.05,1.05125,55.46668883,24.99485933
900,1,1,2,901,00:23:31,00:01:30,0.0,0.0,0.0006767766952966358,-0.05875,0.05125,1.05125,55.46668883,24.9948595
901,1,1,2,902,00:23:31,00:01:30,0.0,0.0,0.000624999999999999,-0.05125,0.05,1.0525,55.46668883,24.99485967
902,1,1,2,903,00:23:31,00:01:30,0.0,0.0,0.0004267766952966368,-0.05375,0.05125,1.05,55.46668883,24.99485983
903,1,1,2,904,00:23:31,00:01:30,0.0,0.0,0.0010821067811865454,-0.0475,0.052500000000000005,1.055,55.46668867,24.99485983
904,1,1,2,905,00:23:31,00:01:30,0.0,0.0,0.0012865660924854918,-0.04375,0.0575,1.05,55.46668867,24.99486
905,1,1,2,906,00:23:31,00:01:30,0.0,0.0,0.0011035533905932734,-0.0425,0.04875,1.05125,55.466688500000004,24.99486
906,1,1,2,907,00:23:31,00:01:30,0.0,0.0,0.0006249999999999993,-0.0425,0.05,1.05125,55.466688500000004,24.99486017
907,1,1,2,908,00:23:31,00:01:30,0.0,0.0,0.0009053300858899095,-0.045,0.04875,1.0575,55.466688500000004,24.99486017
908,1,1,2,909,00:23:31,00:01:30,0.0,0.0,0.0004999999999999991,-0.05875,0.052500000000000005,1.05125,55.466688500000004,24.99486033
909,1,1,2,910,00:23:32,00:01:31,0.0,0.0,0.0008932830462427456,-0.065,0.045,1.05125,55.466688500000004,24.99486033
910,1,1,2,911,00:23:32,00:01:31,0.0,0.0,0.0008535533905932724,-0.05625,0.04375,1.05125,55.46668833,24.9948605
911,1,1,2,912,00:23:32,00:01:31,0.0,0.0,0.0008535533905932763,-0.07125,0.06125,1.03625,55.46668817,24.9948605
912,1,1,2,913,00:23:32,00:01:31,0.0,0.0,0.0011645780987944235,-0.04625,0.0425,1.05375,55.466688,24.99486067
913,1,1,2,914,00:23:32,00:01:31,0.0,0.0,0.0012285533905932716,-0.0125,0.01375,1.06875,55.466688,24.99486067
914,1,1,2,915,00:23:32,00:01:31,0.0,0.0,0.0008017766952966363,-0.018750000000000003,0.00125,1.07375,55.46668767,24.99486083
915,1,1,2,916,00:23:32,00:01:31,0.0,0.0,0.0006249999999999996,-0.0075000000000000015,0.018750000000000003,1.05375,55.4666875,24.994861
916,1,1,2,917,00:23:32,00:01:31,0.0,0.0,0.0006250000000000001,0.00375,0.04,1.05,55.46668733,24.994861
917,1,1,2,918,00:23:32,00:01:31,0.0,0.0,0.0010182830462427453,0.01625,0.0625,1.055,55.46668733,24.99486117
918,1,1,2,919,00:23:32,00:01:31,0.0,0.0,0.00025,0.01,0.08374999999999999,1.05,55.46668717,24.99486117
919,1,1,2,920,00:23:33,00:01:32,0.0,0.0,0.0012285533905932722,0.0025,0.07375,1.0525,55.46668717,24.99486117
920,1,1,2,921,00:23:33,00:01:32,0.0,0.0,0.0009267766952966352,0.0,0.0775,1.0475,55.46668683,24.99486117
921,1,1,2,922,00:23:33,00:01:32,0.0,0.0,0.0005517766952966364,-0.00125,0.06999999999999999,1.055,55.46668683,24.99486133
922,1,1,2,923,00:23:33,00:01:32,0.0,0.0,0.0007682830462427456,-0.00875,0.0725,1.055,55.46668667,24.9948615
923,1,1,2,924,00:23:33,00:01:32,0.0,0.0,0.0004999999999999991,-0.015,0.075,1.04875,55.46668667,24.9948615
924,1,1,2,925,00:23:33,00:01:32,0.0,0.0,0.00030177669529663685,-0.01375,0.08249999999999999,1.05,55.4666865,24.99486167
925,1,1,2,926,00:23:33,00:01:32,0.0,0.0,0.00037499999999999925,-0.0125,0.08875,1.04875,55.4666865,24.99486167
926,1,1,2,927,00:23:33,00:01:32,0.0,0.0,0.0004999999999999994,-0.0125,0.09,1.04875,55.46668633,24.99486167
927,1,1,2,928,00:23:33,00:01:32,0.0,0.0,0.0007499999999999999,-0.00875,0.08875,1.04875,55.46668633,24.99486183
928,1,1,2,929,00:23:33,00:01:32,0.0,0.0,0.00035355339059327365,-0.00625,0.0925,1.04875,55.46668617,24.99486183
929,1,1,2,930,00:23:34,00:01:33,0.0,0.0,0.000375,-0.01125,0.0875,1.05,55.46668617,24.99486183
930,1,1,2,931,00:23:34,00:01:33,0.0,0.0,0.000801776695296637,-0.005,0.08875,1.05,55.466685999999996,24.994862
931,1,1,2,932,00:23:34,00:01:33,0.0,0.0,0.0009267766952966352,-0.01,0.08625,1.05375,55.46668583,24.994862
932,1,1,2,933,00:23:34,00:01:33,0.0,0.0,0.00037500000000000017,-0.0125,0.08875,1.05,55.46668583,24.99486217
933,1,1,2,934,00:23:34,00:01:33,0.0,0.0,0.0009267766952966364,-0.01125,0.0875,1.05125,55.46668567,24.99486217
934,1,1,2,935,00:23:34,00:01:33,0.0,0.0,0.0005000000000000004,-0.0125,0.0925,1.05,55.4666855,24.99486217
935,1,1,2,936,00:23:34,00:01:33,0.0,0.0,0.0004999999999999994,-0.0125,0.09875,1.04625,55.4666855,24.99486233
936,1,1,2,937,00:23:34,00:01:33,0.0,0.0,0.0007499999999999999,-0.01125,0.10375,1.05,55.46668533,24.99486233
937,1,1,2,938,00:23:34,00:01:33,0.0,0.0,0.0006767766952966366,-0.01625,0.1,1.05375,55.46668533,24.99486233
938,1,1,2,939,00:23:34,00:01:33,0.0,0.0,0.0030217151909865464,-0.0575,0.00625,1.1675,55.46668517,24.9948625
939,1,1,2,940,00:23:35,00:01:34,0.0,0.0,0.00513626755427416,-0.04875,-0.05875,1.16375,55.46668517,24.9948625
940,1,1,2,941,00:23:35,00:01:34,0.0,0.0,0.003790748103665165,0.01,0.09875,1.05875,55.466685,24.9948625
941,1,1,2,942,00:23:35,00:01:34,0.34166694,3.4166693999999995,0.0040207576880966645,0.07375,0.2575,0.94625,55.466685,24.99486217
942,1,1,2,943,00:23:35,00:01:34,0.50833374,1.666668,0.0022836302061646626,0.05,0.4175,0.88625,55.46668517,24.99486167
943,1,1,2,944,00:23:35,00:01:34,0.47500038,0.33333359999999995,0.0022019160458785587,0.03625,0.5375,0.84875,55.46668533,24.99486133
944,1,1,2,945,00:23:35,00:01:34,0.64722274,1.7222236000000002,0.0016944792168823426,0.07125,0.58375,0.84375,55.46668567,24.99486083
945,1,1,2,946,00:23:35,00:01:34,0.35277806,2.9444467999999997,0.001207106781186547,0.075,0.63125,0.85375,55.46668567,24.99486067
946,1,1,2,947,00:23:35,00:01:34,0.3055558,0.4722226,0.0014053300858899115,0.0475,0.64875,0.8362499999999999,55.46668567,24.9948605
947,1,1,2,948,00:23:35,00:01:34,0.0,3.055558,0.0014053300858899072,0.00375,0.6775,0.815,55.466685999999996,24.99486033
948,1,1,2,949,00:23:35,00:01:34,0.0,0.0,0.0007165063509461107,0.00625,0.63,0.8412499999999999,55.466685999999996,24.99486033
949,1,1,2,950,00:23:36,00:01:35,0.0,0.0,0.0008061862178478966,0.00625,0.5775,0.8725,55.466685999999996,24.99486033
950,1,1,2,951,00:23:36,00:01:35,0.0,0.0,0.0008017766952966379,0.00875,0.55125,0.8887499999999999,55.46668583,24.99486033
951,1,1,2,952,00:23:36,00:01:35,0.0,0.0,0.0016557544565747534,0.08375,0.5825,0.8674999999999999,55.46668583,24.99486033
952,1,1,2,953,00:23:36,00:01:35,0.0,0.0,0.00117279154343022,0.19375,0.62125,0.83375,55.46668567,24.99486017
953,1,1,2,954,00:23:36,00:01:35,0.0,0.0,0.0009450597415393816,0.235,0.63375,0.8075,55.4666855,24.99486
954,1,1,2,955,00:23:36,00:01:35,0.0,0.0,0.0007285533905932744,0.24375,0.6687500000000001,0.7825,55.4666855,24.99485983
955,1,1,2,956,00:23:36,00:01:35,0.0,0.0,0.0003415063509461103,0.23125,0.68125,0.77125,55.46668533,24.99485983
956,1,1,2,957,00:23:36,00:01:35,0.0,0.0,0.0008749999999999999,0.21125,0.6975,0.77125,55.46668533,24.99485967
957,1,1,2,958,00:23:36,00:01:35,0.0,0.0,0.00042677669529663593,0.1875,0.685,0.78,55.46668533,24.99485967
958,1,1,2,959,00:23:36,00:01:35,0.0,0.0,0.0010303300858899138,0.20375,0.65875,0.79125,55.46668533,24.99485967
959,1,1,2,960,00:23:37,00:01:36,0.0,0.0,0.001197061402817684,0.13625,0.67125,0.8,55.46668533,24.99485967
960,1,1,2,961,00:23:37,00:01:36,0.0,0.0,0.001310660171779821,0.13625,0.6825,0.79,55.46668533,24.99485967
961,1,1,2,962,00:23:37,00:01:36,0.0,0.0,0.0014449081846843374,0.1775,0.67875,0.79,55.46668533,24.99485967
962,1,1,2,963,00:23:37,00:01:36,0.0,0.0,0.0008017766952966369,0.11875,0.6962499999999999,0.77125,55.46668533,24.99485967
963,1,1,2,964,00:23:37,00:01:36,0.0,0.0,0.0008017766952966384,0.10125,0.70625,0.77,55.46668533,24.9948595
964,1,1,2,965,00:23:37,00:01:36,0.0,0.0,0.0010517766952966381,0.10625,0.7025,0.775,55.4666855,24.9948595
965,1,1,2,966,00:23:37,00:01:36,0.0,0.0,0.0006250000000000003,0.08124999999999999,0.72125,0.76125,55.4666855,24.99485933
966,1,1,2,967,00:23:37,00:01:36,0.0,0.0,0.0012803300858899099,0.05875,0.73375,0.75375,55.4666855,24.99485933
967,1,1,2,968,00:23:37,00:01:36,0.0,0.0,0.0013321067811865475,0.05375,0.73875,0.7362500000000001,55.46668567,24.99485917
968,1,1,2,969,00:23:37,00:01:36,0.0,0.0,0.000603553390593274,0.03625,0.7775,0.7162499999999999,55.46668567,24.99485917
969,1,1,2,970,00:23:38,00:01:37,0.0,0.0,0.0006035533905932719,0.0375,0.78375,0.6975,55.46668567,24.99485917
970,1,1,2,971,00:23:38,00:01:37,0.0,0.0,0.0011338834764831824,0.03375,0.81,0.68875,55.466685999999996,24.99485883
971,1,1,2,972,00:23:38,00:01:37,0.0,0.0,0.001133061887780748,0.03,0.83375,0.6775,55.46668617,24.99485883
972,1,1,2,973,00:23:38,00:01:37,0.0,0.0,0.00219895900943659,0.01625,0.94625,0.5825,55.46668617,24.99485867
973,1,1,2,974,00:23:38,00:01:37,0.0,0.0,0.0009053300858899107,0.02625,0.9225,0.55625,55.46668633,24.9948585
974,1,1,2,975,00:23:38,00:01:37,0.0,0.0,0.0012512459593872801,0.052500000000000005,0.885,0.61875,55.46668633,24.9948585
975,1,1,2,976,00:23:38,00:01:37,0.0,0.0,0.001941914349065589,0.035,0.86125,0.65625,55.46668633,24.9948585
976,1,1,2,977,00:23:38,00:01:37,0.0,0.0,0.002597833338730449,0.09,0.7075,0.71375,55.46668617,24.99485867
977,1,1,2,978,00:23:38,00:01:37,0.0,0.0,0.0015303300858899107,0.08125,0.735,0.75,55.46668617,24.99485867
978,1,1,2,979,00:23:38,00:01:37,0.0,0.0,0.0012682830462427456,0.08625000000000001,0.765,0.74,55.46668617,24.99485867
979,1,1,2,980,00:23:39,00:01:38,0.0,0.0,0.0007682830462427449,0.085,0.72375,0.745,55.46668617,24.99485867
980,1,1,2,981,00:23:39,00:01:38,0.0,0.0,0.00025000000000000066,0.06999999999999999,0.7375,0.75,55.46668633,24.99485867
981,1,1,2,982,00:23:39,00:01:38,0.0,0.0,0.0006249999999999994,0.07375,0.75625,0.73125,55.46668633,24.9948585
982,1,1,2,983,00:23:39,00:01:38,0.0,0.0,0.00042677669529663865,0.06375,0.7625,0.7275,55.4666865,24.9948585
983,1,1,2,984,00:23:39,00:01:38,0.0,0.0,0.0008535533905932751,0.065,0.76625,0.72375,55.4666865,24.99485833
984,1,1,2,985,00:23:39,00:01:38,0.0,0.0,0.0008017766952966374,0.05875,0.77375,0.72375,55.46668667,24.99485833
985,1,1,2,986,00:23:39,00:01:38,0.0,0.0,0.0002499999999999996,0.06875,0.775,0.72,55.46668667,24.99485817
986,1,1,2,987,00:23:39,00:01:38,0.0,0.0,0.0002499999999999992,0.075,0.78125,0.7125,55.46668667,24.99485817
987,1,1,2,988,00:23:39,00:01:38,0.0,0.0,0.0007499999999999994,0.07375,0.78375,0.71,55.46668683,24.994857999999997
988,1,1,2,989,00:23:39,00:01:38,0.0,0.0,0.0009968364368360227,0.06999999999999999,0.7875,0.7075,55.46668683,24.994857999999997
989,1,1,2,990,00:23:40,00:01:39,0.0,0.0,0.0008017766952966358,0.075,0.78125,0.70875,55.46668683,24.994857999999997
990,1,1,2,991,00:23:40,00:01:39,0.0,0.0,0.0008535533905932741,0.0725,0.78375,0.7012499999999999,55.466687,24.99485783
991,1,1,2,992,00:23:40,00:01:39,0.0,0.0,0.0005517766952966383,0.0675,0.79,0.7012499999999999,55.466687,24.99485783
992,1,1,2,993,00:23:40,00:01:39,0.0,0.0,0.001280330085889911,0.0575,0.78375,0.705,55.466687,24.99485767
993,1,1,2,994,00:23:40,00:01:39,0.0,0.0,0.0005517766952966378,0.052500000000000005,0.78125,0.7125,55.46668717,24.99485767
994,1,1,2,995,00:23:40,00:01:39,0.0,0.0,0.0006767766952966372,0.052500000000000005,0.77375,0.71375,55.46668717,24.994857500000002
995,1,1,2,996,00:23:40,00:01:39,0.0,0.0,0.0009267766952966367,0.05,0.765,0.71875,55.46668733,24.994857500000002
996,1,1,2,997,00:23:40,00:01:39,0.0,0.0,0.0008017766952966376,0.06999999999999999,0.775,0.7275,55.46668733,24.99485733
997,1,1,2,998,00:23:40,00:01:39,0.0,0.0,0.001616024800925282,0.0875,0.8200000000000001,0.7162499999999999,55.4666875,24.99485717
998,1,1,2,999,00:23:40,00:01:39,0.0,0.0,0.0017075311518713909,0.03875,0.775,0.67625,55.4666875,24.99485717
999,1,1,2,1000,00:23:41,00:01:40,0.0,0.0,0.001085694715035371,0.0325,0.8375,0.65875,55.4666875,24.99485717
1000,1,1,2,1001,00:23:41,00:01:40,0.0,0.0,0.0017548983246167679,0.01125,0.86125,0.6950000000000001,55.46668767,24.994857
1001,1,1,2,1002,00:23:41,00:01:40,0.0,0.0,0.0014356601717798213,0.015,0.78625,0.7175,55.46668767,24.994857
1002,1,1,2,1003,00:23:41,00:01:40,0.0,0.0,0.0018704343234765414,0.06375,0.715,0.76125,55.4666875,24.994857
1003,1,1,2,1004,00:23:41,00:01:40,0.0,0.0,0.0014097396084411693,0.06125,0.67875,0.80875,55.46668733,24.99485717
1004,1,1,2,1005,00:23:41,00:01:40,0.0,0.0,0.0020379947556530644,0.07125,0.5825,0.86,55.46668717,24.99485733
1005,1,1,2,1006,00:23:41,00:01:40,0.0,0.0,0.0013321067811865456,0.09125,0.55875,0.8725,55.46668717,24.99485733
1006,1,1,2,1007,00:23:41,00:01:40,0.0,0.0,0.0016097893971888544,0.12875,0.5700000000000001,0.8725,55.466687,24.99485733
1007,1,1,2,1008,00:23:41,00:01:40,0.0,0.0,0.0022001407699364425,0.1725,0.55375,0.9125,55.466687,24.994857500000002
1008,1,1,2,1009,00:23:41,00:01:40,0.0,0.0,0.002753098993239696,0.1375,0.5862499999999999,0.83625,55.46668683,24.99485733
1009,1,1,2,1010,00:23:42,00:01:41,0.0,0.0,0.002078546000004976,0.0325,0.6575,0.7875,55.46668683,24.99485733
1010,1,1,2,1011,00:23:42,00:01:41,0.0,0.0,0.0018882929990344454,-0.00125,0.775,0.77,55.466687,24.99485733
1011,1,1,2,1012,00:23:42,00:01:41,0.0,0.0,0.002266768499105966,-0.018750000000000003,0.645,0.8200000000000001,55.466687,24.99485717
1012,1,1,2,1013,00:23:42,00:01:41,0.0,0.0,0.001298613132132658,-0.0125,0.59375,0.86,55.46668717,24.99485717
1013,1,1,2,1014,00:23:42,00:01:41,0.0,0.0,0.0014097396084411715,-0.055,0.60875,0.845,55.46668717,24.99485733
1014,1,1,2,1015,00:23:42,00:01:41,0.0,0.0,0.0010000000000000009,-0.0475,0.63625,0.85375,55.466687,24.99485733
1015,1,1,2,1016,00:23:42,00:01:41,0.0,0.0,0.0016892481056286445,-0.00375,0.64875,0.85875,55.466687,24.99485717
1016,1,1,2,1017,00:23:42,00:01:41,0.0,0.0,0.0031044369276616245,0.04625,0.6525,0.8075,55.46668683,24.994857
1017,1,1,2,1018,00:23:42,00:01:41,0.0,0.0,0.0017318010112588535,0.0675,0.64,0.83,55.46668683,24.994857
1018,1,1,2,1019,00:23:42,00:01:41,0.0,0.0,0.002126267230211944,0.09375,0.7,0.74875,55.46668667,24.99485683
1019,1,1,2,1020,00:23:43,00:01:42,0.0,0.0,0.002565429998502438,0.0975,0.80875,0.66875,55.46668667,24.99485683
1020,1,1,2,1021,00:23:43,00:01:42,0.0,0.0,0.001155330085889909,0.115,0.85,0.68125,55.46668683,24.99485633
1021,1,1,2,1022,00:23:43,00:01:42,0.0,0.0,0.0014567095631689536,0.07875,0.80625,0.69125,55.46668683,24.99485617
1022,1,1,2,1023,00:23:43,00:01:42,0.0,0.0,0.0009571067811865463,0.105,0.745,0.70875,55.46668683,24.99485617
1023,1,1,2,1024,00:23:43,00:01:42,0.0,0.0,0.0016856601717798216,0.125,0.78,0.7075,55.46668683,24.99485617
1024,1,1,2,1025,00:23:43,00:01:42,0.0,0.0,0.000603553390593274,0.14250000000000002,0.7975,0.705,55.466687,24.994856
1025,1,1,2,1026,00:23:43,00:01:42,0.0,0.0,0.0014236131321326588,0.15125,0.75,0.72625,55.466687,24.994856
1026,1,1,2,1027,00:23:43,00:01:42,0.0,0.0,0.0014053300858899089,0.16875,0.7325,0.7212500000000001,55.466687,24.99485583
1027,1,1,2,1028,00:23:43,00:01:42,0.0,0.0,0.0014866152783740221,0.13625,0.77875,0.71625,55.46668717,24.99485583
1028,1,1,2,1029,00:23:43,00:01:42,0.0,0.0,0.0024619682993907628,0.11625,0.81375,0.68125,55.46668717,24.99485567
1029,1,1,2,1030,00:23:44,00:01:43,0.0,0.0,0.0031297070187078484,0.14125,0.73875,0.7325,55.46668717,24.99485567
1030,1,1,2,1031,00:23:44,00:01:43,0.0,0.0,0.0033233979151502746,0.1225,0.7,0.7525000000000001,55.46668733,24.99485567
1031,1,1,2,1032,00:23:44,00:01:43,0.0,0.0,0.0037554065384223134,0.10625,0.74875,0.74875,55.46668733,24.9948555
1032,1,1,2,1033,00:23:44,00:01:43,0.0,0.0,0.0035543157087383885,0.0925,0.70125,0.795,55.4666875,24.9948555
1033,1,1,2,1034,00:23:44,00:01:43,0.0,0.0,0.005686413099050305,0.01125,0.64625,0.81875,55.4666875,24.99485533
1034,1,1,2,1035,00:23:44,00:01:43,0.0,0.0,0.0024356873244470705,0.055,0.745,0.7775,55.46668767,24.99485533
1035,1,1,2,1036,00:23:44,00:01:43,0.0,0.0,0.0018790767359143313,0.01875,0.7025,0.7925,55.46668783,24.99485517
1036,1,1,2,1037,00:23:44,00:01:43,0.0,0.0,0.002322506523327297,0.01125,0.665,0.8075,55.46668783,24.99485517
1037,1,1,2,1038,00:23:44,00:01:43,0.0,0.0,0.0026732548346300195,0.01,0.7125,0.8025,55.466688,24.99485517
1038,1,1,2,1039,00:23:44,00:01:43,0.0,0.0,0.002606448366007754,0.0175,0.7075,0.7737499999999999,55.466688,24.99485517
1039,1,1,2,1040,00:23:45,00:01:44,0.0,0.0,0.001298613132132657,-0.005,0.6925,0.7837500000000001,55.466688,24.99485517
1040,1,1,2,1041,00:23:45,00:01:44,0.0,0.0,0.001434838583077386,0.03,0.68875,0.79625,55.466688,24.99485517
1041,1,1,2,1042,00:23:45,00:01:44,0.0,0.0,0.0014910248009252806,0.07625,0.68375,0.79625,55.46668817,24.994854999999998
1042,1,1,2,1043,00:23:45,00:01:44,0.0,0.0,0.001971404675562877,0.08875,0.705,0.785,55.46668817,24.994854999999998
1043,1,1,2,1044,00:23:45,00:01:44,0.0,0.0,0.0014013449340234939,0.05375,0.7012499999999999,0.78,55.46668817,24.994854999999998
1044,1,1,2,1045,00:23:45,00:01:44,0.0,0.0,0.0023066750199134053,0.04875,0.68375,0.79125,55.46668817,24.994854999999998
1045,1,1,2,1046,00:23:45,00:01:44,0.0,0.0,0.002862430011662825,0.0375,0.6825,0.80875,55.466688,24.994854999999998
1046,1,1,2,1047,00:23:45,00:01:44,0.0,0.0,0.001629898324616767,0.06625,0.69375,0.78125,55.466688,24.994854999999998
1047,1,1,2,1048,00:23:45,00:01:44,0.0,0.0,0.0012632929990344431,0.07875,0.6925,0.79625,55.466688,24.994854999999998
1048,1,1,2,1049,00:23:45,00:01:44,0.0,0.0,0.0009968364368360208,0.05125,0.695,0.79375,55.466688,24.994854999999998
1049,1,1,2,1050,00:23:46,00:01:45,0.0,0.0,0.001091506350946108,0.0875,0.69875,0.77875,55.466688,24.994854999999998
1050,1,1,2,1051,00:23:46,00:01:45,0.0,0.0,0.0016808534312109675,0.0575,0.71125,0.77,55.466688,24.99485483
1051,1,1,2,1052,00:23:46,00:01:45,0.0,0.0,0.0013262957481349664,0.04,0.7125,0.77125,55.46668817,24.99485467
1052,1,1,2,1053,00:23:46,00:01:45,0.0,0.0,0.0013503898274292955,0.05125,0.71875,0.78125,55.46668817,24.99485467
1053,1,1,2,1054,00:23:46,00:01:45,0.0,0.0,0.0012133427877821321,0.0325,0.69375,0.7825,55.46668817,24.99485467
1054,1,1,2,1055,00:23:46,00:01:45,0.0,0.0,0.001332106781186546,0.025,0.6825,0.81625,55.46668817,24.99485467
1055,1,1,2,1056,00:23:46,00:01:45,0.0,0.0,0.0015012459593872806,0.04875,0.6525,0.82125,55.46668833,24.994854500000002
1056,1,1,2,1057,00:23:46,00:01:45,0.0,0.0,0.0013200597415393845,0.015,0.675,0.8225,55.46668833,24.994854500000002
1057,1,1,2,1058,00:23:46,00:01:45,0.0,0.0,0.001320059741539382,0.03375,0.665,0.80875,55.466688500000004,24.99485433
1058,1,1,2,1059,00:23:46,00:01:45,0.0,0.0,0.001018283046242744,0.0425,0.6825,0.81125,55.466688500000004,24.99485433
1059,1,1,2,1060,00:23:47,00:01:46,0.0,0.0,0.0014053300858899074,0.06,0.67,0.81125,55.466688500000004,24.99485433
1060,1,1,2,1061,00:23:47,00:01:46,0.0,0.0,0.0011097893971888562,0.04625,0.63,0.8425,55.466688500000004,24.99485417
1061,1,1,2,1062,00:23:47,00:01:46,0.0,0.0,0.0010080618877807473,0.025,0.615,0.8625,55.466688500000004,24.99485417
